// General information: 
//  MT Manager version: 2021.0.0 
//  XDA version: 2021.0.0 build 5908 rev 109668 built on 2021-04-19
// Device information: 
//  DeviceId: 00B44073
//  ProductCode: MTW2-3A7G6
//  Firmware Version: 4.4.0
//  Hardware Version: 1.1.0
// Device settings: 
//  Filter Profile: human(46.1)
//  Option Flags: Orientation Smoother Disabled, Position/Velocity Smoother Disabled, Continuous Zero Rotation Update Disabled, AHS Disabled, ICC Disabled
// Coordinate system: ENU
PacketCounter	SampleTimeFine	Acc_X	Acc_Y	Acc_Z	Gyr_X	Gyr_Y	Gyr_Z	Mag_X	Mag_Y	Mag_Z
46467		-4.508500	-3.376015	9.540359	-0.148843	2.957175	0.681232	1.149414	-0.600342	-0.758789
46468		-5.205417	-4.488001	9.197664	-0.115863	3.462449	0.966089	1.169434	-0.613281	-0.709229
46469		-6.938911	-4.256492	9.149859	-0.072366	3.864190	1.195497	1.198242	-0.628174	-0.666016
46470		-4.742689	-3.671709	10.859862	-0.170490	4.563723	1.550047	1.218506	-0.651855	-0.601563
46471		-6.857620	-3.300055	9.203351	-0.229694	5.345001	1.859467	1.232178	-0.668945	-0.539063
46472		-13.605307	-2.386075	7.393897	-0.050997	5.380764	1.847530	1.254639	-0.690430	-0.472412
46473		-14.701731	-1.027657	8.330584	-0.024458	5.173613	1.700629	1.263916	-0.711914	-0.407715
46474		-14.664741	-0.433034	10.442561	-0.034199	5.110099	1.518376	1.275635	-0.733154	-0.341064
46475		-12.074273	-2.141197	11.640137	-0.157531	5.236784	1.401149	1.284668	-0.743896	-0.272461
46476		-12.314671	-4.382162	11.428001	-0.374520	5.363723	1.426380	1.283203	-0.763184	-0.203613
46477		-14.811026	-4.989756	11.642866	-0.485742	5.383925	1.617004	1.285645	-0.771729	-0.135010
46478		-13.590182	-5.069560	10.675639	-0.699519	5.280049	1.678872	1.273438	-0.797607	-0.066162
46479		-14.325054	-5.823461	9.820668	-0.938431	5.133088	1.881748	1.267578	-0.814697	-0.010498
46480		-15.868026	-6.276687	8.307984	-1.116011	4.782220	2.098368	1.250977	-0.838623	0.043457
46481		-13.144828	-4.530845	5.107478	-0.980287	4.256799	2.230983	1.230225	-0.866699	0.082275
46482		-16.068999	-1.304654	9.670268	-1.071368	2.810825	2.088541	1.217773	-0.886230	0.108154
46483		-15.646051	-5.535129	12.144169	-1.364599	1.117887	1.582934	1.209473	-0.896973	0.108398
46484		-10.545364	-8.280324	10.220556	-0.954138	0.036245	1.272091	1.194336	-0.905762	0.099854
46485		-6.513115	-4.817961	9.684474	-0.474837	-0.868162	0.734128	1.196777	-0.910156	0.082764
46486		-1.093617	-2.205708	8.123331	-0.533818	-1.048254	0.046309	1.200928	-0.907959	0.070068
46487		-1.082394	-2.868518	6.959467	-0.723154	-1.057707	-0.593737	1.211182	-0.886230	0.054688
46488		0.201660	-4.295151	5.935051	-0.647389	-0.986765	-1.067470	1.221680	-0.875488	0.041748
46489		0.425963	-4.598120	5.986122	-0.288714	-0.891598	-1.332627	1.236328	-0.853760	0.030762
46490		-0.693806	-3.394269	6.434381	0.003751	-0.837773	-1.462017	1.246582	-0.834229	0.017578
46491		-3.383362	-1.606643	6.358909	0.085513	-1.070765	-1.539713	1.263184	-0.812500	0.002441
46492		-4.728648	0.311967	6.624613	-0.090185	-1.541262	-1.580648	1.277588	-0.782227	-0.015137
46493		-5.273136	0.999205	6.325305	-0.487023	-2.083749	-1.542927	1.287598	-0.762695	-0.051758
46494		-4.928874	0.569618	5.736710	-0.778465	-2.613650	-1.425146	1.293457	-0.741211	-0.090576
46495		-4.312581	-0.128914	5.394882	-0.862667	-2.995099	-1.237629	1.299561	-0.723877	-0.137939
46496		-4.343513	-0.086013	5.142977	-0.827778	-3.190384	-1.075074	1.298828	-0.708984	-0.187256
46497		-4.914136	0.051334	4.970059	-0.750206	-3.302566	-0.995830	1.293945	-0.687256	-0.230469
46498		-5.494360	0.500560	4.771954	-0.687377	-3.422224	-1.032910	1.295654	-0.672363	-0.281982
46499		-5.348041	0.508944	4.846553	-0.600492	-3.527302	-1.189675	1.294922	-0.652832	-0.327393
46500		-5.337796	0.211588	5.054999	-0.451725	-3.550436	-1.357189	1.289795	-0.629150	-0.374756
46501		-6.130764	0.496582	5.495178	-0.310722	-3.528675	-1.483970	1.284424	-0.598877	-0.413818
46502		-7.625468	1.029754	5.946044	-0.264793	-3.547132	-1.602695	1.279541	-0.581787	-0.458984
46503		-9.399983	1.085022	5.914795	-0.286275	-3.668392	-1.712089	1.276611	-0.555908	-0.502197
46504		-10.445355	0.294555	5.692533	-0.224044	-3.920310	-1.759614	1.264893	-0.530029	-0.549805
46505		-10.614051	-0.731388	5.563373	-0.040453	-4.123036	-1.722549	1.253174	-0.501953	-0.601807
46506		-10.555131	-1.226658	5.683240	0.235276	-4.181977	-1.707801	1.243896	-0.482666	-0.640625
46507		-11.005188	-1.151690	5.631491	0.459744	-4.115625	-1.875742	1.218994	-0.456787	-0.688232
46508		-11.447725	-2.235767	5.410636	0.649406	-4.007251	-2.190959	1.211670	-0.428711	-0.722900
46509		-11.492237	-3.473739	5.223780	0.950841	-3.843408	-2.554566	1.208740	-0.402832	-0.761963
46510		-11.335255	-3.990778	5.233234	1.316010	-3.668502	-2.899689	1.201416	-0.376953	-0.796631
46511		-11.055250	-4.039957	5.365884	1.619465	-3.482116	-3.207749	1.193848	-0.340088	-0.822754
46512		-10.919153	-4.122544	5.898144	1.777393	-3.281573	-3.394818	1.192871	-0.314209	-0.859619
46513		-11.753949	-4.468141	6.471213	1.837252	-3.136301	-3.394045	1.183350	-0.281738	-0.887939
46514		-12.983654	-4.803369	7.035685	1.837835	-3.172832	-3.182711	1.171387	-0.253662	-0.918457
46515		-13.841958	-4.479508	7.628764	1.739354	-3.352149	-2.861071	1.155518	-0.229980	-0.959717
46516		-13.889963	-3.981015	7.980758	1.513166	-3.562554	-2.530129	1.135254	-0.204102	-1.000732
46517		-13.439512	-3.643132	7.933280	1.200203	-3.748391	-2.243899	1.104004	-0.182617	-1.044189
46518		-12.488278	-3.900657	7.605405	0.876058	-3.850565	-1.939536	1.075439	-0.167725	-1.083008
46519		-11.668946	-3.597005	7.447660	0.632878	-3.851319	-1.562466	1.037598	-0.146240	-1.141357
46520		-11.370504	-2.990199	7.556822	0.393542	-3.784846	-1.148056	1.004395	-0.126953	-1.178223
46521		-11.526677	-2.913651	8.042899	0.087710	-3.668862	-0.685036	0.962891	-0.116455	-1.219238
46522		-12.854383	-2.734128	8.420391	-0.291875	-3.568336	-0.199693	0.921143	-0.099365	-1.260254
46523		-13.981068	-2.562021	8.100695	-0.680366	-3.622607	0.142972	0.874756	-0.080078	-1.297363
46524		-13.731035	-3.026265	7.673713	-1.035331	-3.724294	0.332698	0.828613	-0.058594	-1.332031
46525		-13.043624	-3.137712	6.917974	-1.325498	-3.696181	0.392615	0.777832	-0.034912	-1.371338
46526		-12.496777	-3.424457	5.679161	-1.449547	-3.534895	0.361078	0.733643	-0.009277	-1.399658
46527		-11.752724	-3.742219	4.303832	-1.322535	-3.292136	0.277355	0.689453	0.014404	-1.428223
46528		-11.165188	-3.420114	3.206747	-1.074916	-2.947975	0.112233	0.645264	0.038086	-1.443848
46529		-11.275947	-3.199671	2.159019	-0.836625	-2.546855	-0.081063	0.611816	0.061768	-1.461426
46530		-11.361593	-2.919853	1.186506	-0.641741	-2.154493	-0.206892	0.583496	0.070313	-1.470215
46531		-11.262346	-2.256870	0.397823	-0.541116	-1.743792	-0.241497	0.561279	0.087646	-1.487793
46532		-11.415653	-2.139214	-0.368044	-0.453607	-1.311719	-0.183834	0.537109	0.089844	-1.492188
46533		-12.240698	-1.977873	-0.886811	-0.293842	-0.892952	-0.049301	0.519531	0.100586	-1.507568
46534		-13.229716	-1.644782	-1.395474	-0.053931	-0.528364	0.121268	0.510742	0.100342	-1.501221
46535		-13.200842	-0.783151	-1.603123	0.186335	-0.185543	0.278341	0.508789	0.091797	-1.505371
46536		-13.410629	-0.711823	-1.674924	0.349986	0.230746	0.431897	0.520020	0.083252	-1.500732
46537		-12.100210	-3.933461	-2.336771	0.813923	0.777903	0.548432	0.533691	0.061523	-1.502441
46538		-12.296636	-2.532858	-2.957995	1.674288	1.544316	0.820167	0.556641	0.020264	-1.495361
46539		-14.045039	0.249754	-2.261890	2.318242	2.214741	0.708574	0.594971	-0.029297	-1.481445
46540		3.983797	-3.098021	12.565155	2.278432	2.396020	0.687638	0.628906	-0.070313	-1.457031
46541		13.027351	-19.349331	22.500059	2.893890	3.264513	0.853025	0.680664	-0.128662	-1.432129
46542		4.300631	6.859109	13.600583	3.474671	3.914599	1.143085	0.734619	-0.189209	-1.403076
46543		-10.184554	13.903134	8.062783	2.106152	4.198690	0.427563	0.796387	-0.219238	-1.361572
46544		-18.064547	11.385621	11.140549	1.196429	3.817903	0.944925	0.838379	-0.245117	-1.328857
46545		-17.476976	11.076499	13.552712	0.263675	3.045970	1.340110	0.873779	-0.266602	-1.302734
46546		-11.065789	5.833750	13.807921	-0.617889	2.692313	1.307223	0.906494	-0.272949	-1.276611
46547		-11.806892	-1.670536	10.309388	-1.025531	2.616778	0.702702	0.937012	-0.268311	-1.255127
46548		-12.417379	-4.526641	8.721680	-0.982583	2.411553	0.245773	0.973877	-0.266113	-1.222900
46549		-8.495141	-4.489800	10.087609	-0.904207	2.288322	0.210182	0.993408	-0.265869	-1.201416
46550		-8.033376	-4.710412	8.866211	-0.721154	2.174282	0.359095	1.015137	-0.265869	-1.182129
46551		-10.671038	-8.287810	6.648690	-0.500860	2.005224	0.325632	1.037354	-0.278564	-1.158203
46552		-6.699681	-7.804066	6.242056	0.076539	1.695606	0.374877	1.050781	-0.291504	-1.134521
46553		-5.989873	-3.386160	8.765123	0.331632	1.466355	0.428786	1.063965	-0.302246	-1.110840
46554		-6.718755	-1.617718	8.937771	0.361236	1.293265	0.380834	1.071045	-0.315186	-1.097656
46555		-7.174664	-0.085967	9.034034	0.283011	1.122877	0.280613	1.080078	-0.323975	-1.080322
46556		-7.285697	0.772171	8.913765	0.121539	0.977304	0.199899	1.089111	-0.338867	-1.064941
46557		-7.621830	0.163655	9.303959	-0.003682	0.808490	0.131663	1.089355	-0.343262	-1.058594
46558		-7.661825	-0.119045	8.488576	-0.104568	0.658170	0.062262	1.087158	-0.347656	-1.045654
46559		-7.128891	-1.886688	7.922420	-0.145674	0.481319	0.026831	1.087402	-0.349854	-1.030762
46560		-6.450025	-3.091879	7.715798	-0.074159	0.326547	0.061724	1.089600	-0.354004	-1.026367
46561		-6.084034	-3.152679	7.303801	0.012099	0.236556	0.095159	1.092041	-0.360596	-1.013428
46562		-6.128539	-2.827572	7.597948	0.081183	0.155865	0.105998	1.081299	-0.362793	-1.015625
46563		-6.257687	-2.474096	7.865011	0.120660	0.102665	0.109055	1.070557	-0.371338	-1.009033
46564		-6.668091	-1.785127	7.836284	0.155222	0.030564	0.121860	1.068604	-0.375732	-1.004639
46565		-6.730601	-1.533145	7.732519	0.157368	-0.035877	0.094970	1.060059	-0.380127	-1.006836
46566		-6.407828	-1.673025	7.932595	0.153718	-0.137457	0.058262	1.051514	-0.382324	-1.002441
46567		-6.495812	-1.463837	7.699478	0.172965	-0.210020	0.038509	1.042969	-0.393066	-1.008789
46568		-6.289986	-1.457347	7.636634	0.196240	-0.287221	0.008115	1.034424	-0.397461	-1.008789
46569		-6.255107	-1.585456	7.598731	0.211187	-0.344545	-0.008820	1.030273	-0.401855	-1.006592
46570		-5.991140	-2.661691	7.663512	0.251002	-0.392781	-0.017055	1.023926	-0.406250	-1.015137
46571		-6.046082	-2.969352	7.470566	0.329246	-0.440977	0.028283	1.009033	-0.417236	-1.017090
46572		-5.596184	-2.971433	7.428721	0.415795	-0.469108	0.080385	0.993896	-0.421631	-1.017090
46573		-6.141822	-1.932218	7.426808	0.465121	-0.472393	0.081652	0.985352	-0.430176	-1.021240
46574		-5.983209	-1.285088	8.109274	0.457069	-0.474194	0.050772	0.972656	-0.438965	-1.021240
46575		-6.409156	-0.843838	8.327400	0.421029	-0.421013	0.019200	0.968262	-0.438965	-1.023438
46576		-6.126607	-1.176526	8.517786	0.356744	-0.338517	-0.014020	0.964355	-0.454102	-1.016602
46577		-6.009400	-1.048294	8.576050	0.286408	-0.235338	-0.012735	0.949219	-0.456299	-1.025391
46578		-6.128637	-1.318883	8.214460	0.227672	-0.147163	-0.002560	0.945068	-0.462891	-1.025146
46579		-5.951484	-1.234592	8.413033	0.172224	-0.101334	0.001461	0.940918	-0.467285	-1.022949
46580		-6.063532	-1.484341	8.011263	0.135435	-0.046065	0.016355	0.936523	-0.465088	-1.025146
46581		-5.931568	-1.539938	8.132314	0.107045	-0.005999	0.014780	0.932373	-0.473877	-1.022949
46582		-6.058889	-1.605694	8.138897	0.076010	0.032161	0.035462	0.932617	-0.480225	-1.024902
46583		-5.992981	-1.491208	8.165528	0.042292	0.058623	0.037005	0.928223	-0.478271	-1.022949
46584		-6.004964	-1.432058	8.136237	0.016395	0.100842	0.050329	0.919678	-0.484619	-1.027100
46585		-6.235328	-1.266019	8.118963	-0.021675	0.136689	0.053212	0.919922	-0.489014	-1.027100
46586		-6.098857	-1.140572	8.232603	-0.052242	0.159091	0.064124	0.915527	-0.489014	-1.022705
46587		-6.040608	-1.625882	8.110568	-0.056118	0.190195	0.066653	0.911133	-0.486816	-1.029297
46588		-5.900516	-1.843798	8.095417	-0.024727	0.203234	0.079796	0.911621	-0.500000	-1.029053
46589		-6.362662	-1.890489	7.787627	0.009029	0.214021	0.089410	0.913574	-0.500000	-1.024658
46590		-6.083886	-1.974102	8.002982	0.028304	0.217477	0.097198	0.907471	-0.506348	-1.029053
46591		-5.823912	-1.857397	8.103160	0.049036	0.246403	0.115454	0.909668	-0.512939	-1.026611
46592		-6.046341	-1.188420	7.994817	0.061276	0.309896	0.130590	0.914307	-0.519531	-1.024414
46593		-6.390649	-0.307203	8.003272	0.025802	0.342765	0.119291	0.907715	-0.521484	-1.020264
46594		-6.327699	-0.266040	8.352888	-0.044927	0.370014	0.078778	0.909912	-0.521484	-1.018066
46595		-6.510099	-1.088352	8.143868	-0.097987	0.424237	0.059481	0.914307	-0.523682	-1.026611
46596		-6.506559	-1.568358	8.175457	-0.127768	0.463731	0.055493	0.916748	-0.530273	-1.020020
46597		-6.549005	-1.716646	8.119347	-0.109125	0.493025	0.065359	0.921143	-0.530273	-1.017822
46598		-6.579160	-1.744233	7.815379	-0.117729	0.532128	0.088268	0.923340	-0.532471	-1.013428
46599		-6.461324	-1.182145	8.034609	-0.131868	0.561113	0.100574	0.932129	-0.534424	-1.013428
46600		-6.565967	-0.940288	7.895088	-0.168800	0.607430	0.092744	0.934082	-0.530273	-1.011230
46601		-6.461062	-1.278265	8.124579	-0.200410	0.658302	0.071517	0.938721	-0.538818	-1.004639
46602		-6.558512	-1.548311	8.067927	-0.219155	0.736065	0.063158	0.945313	-0.538818	-1.002441
46603		-6.318957	-1.184183	8.463492	-0.226805	0.817031	0.052659	0.956055	-0.538818	-1.002441
46604		-6.898758	-1.185223	8.188220	-0.247040	0.922194	0.035004	0.964844	-0.540771	-0.993896
46605		-6.618846	-1.373828	8.128000	-0.262070	1.010591	0.028158	0.971436	-0.542969	-0.987305
46606		-6.661589	-1.282057	8.156032	-0.259405	1.083919	0.022275	0.984375	-0.534180	-0.980957
46607		-7.025154	-1.385476	7.949193	-0.266918	1.190075	0.008415	0.997314	-0.538574	-0.970215
46608		-6.868021	-1.266518	7.996449	-0.280065	1.278694	0.002917	1.012695	-0.542725	-0.955078
46609		-6.702551	-1.252367	8.230495	-0.289158	1.407381	-0.002700	1.023682	-0.544922	-0.944336
46610		-6.817729	-1.784802	8.207297	-0.315423	1.566561	-0.007503	1.036621	-0.538330	-0.931396
46611		-6.775537	-2.220957	8.168200	-0.328641	1.720873	0.033046	1.058350	-0.538086	-0.918457
46612		-6.419045	-2.235490	8.277543	-0.339168	1.906562	0.081732	1.077881	-0.540283	-0.901367
46613		-6.829350	-1.859493	8.018200	-0.355361	2.109495	0.128776	1.088867	-0.538086	-0.875732
46614		-6.685947	-2.006090	7.493173	-0.381474	2.333889	0.179252	1.112549	-0.535645	-0.856201
46615		-3.791810	-1.895145	8.385265	-0.383860	2.612439	0.335047	1.130127	-0.539795	-0.826172
46616		-9.695736	-3.078239	8.039802	-0.326332	2.790116	0.313800	1.154053	-0.541992	-0.793945
46617		-8.712317	-3.863914	7.570995	-0.249932	2.841209	0.361135	1.178467	-0.552490	-0.765869
46618		-2.430711	-4.088541	9.511484	-0.208653	3.193491	0.658583	1.197998	-0.556641	-0.727295
46619		-7.913259	-4.310855	7.650770	-0.160148	3.624773	0.895901	1.220215	-0.569580	-0.677734
46620		-5.729343	-4.157895	9.146658	-0.136942	3.821291	1.034516	1.235840	-0.582275	-0.632568
46621		-6.789295	-4.261024	8.728373	-0.015862	4.209705	1.281023	1.258301	-0.603760	-0.576416
46622		-7.657910	-3.378152	8.631202	0.085501	4.569173	1.399299	1.280762	-0.623047	-0.513916
46623		-13.455227	-2.328032	8.127756	0.062426	4.759145	1.389148	1.294189	-0.638184	-0.460205
46624		-14.378111	-1.804109	9.266240	0.051797	4.813810	1.485418	1.305664	-0.655273	-0.389160
46625		-16.358795	-2.934878	9.974737	0.062722	4.834270	1.462523	1.315186	-0.681152	-0.322510
46626		-11.452747	-4.919714	12.027542	-0.069080	5.007927	1.563043	1.322266	-0.696045	-0.253662
46627		-11.400725	-6.717741	11.223589	-0.142432	5.271724	1.823809	1.321045	-0.724121	-0.180664
46628		-15.385953	-6.252091	11.251783	-0.131390	5.290482	2.065578	1.323975	-0.745361	-0.105469
46629		-13.302364	-4.677190	10.538002	-0.326614	5.262032	2.175536	1.309570	-0.769287	-0.040771
46630		-15.501858	-4.281123	9.914740	-0.625767	5.072408	2.347463	1.291016	-0.799316	0.023682
46631		-15.998083	-6.073577	7.199983	-0.727924	4.508682	2.426984	1.272217	-0.818848	0.077393
46632		-12.700258	-3.443260	6.425090	-0.468939	3.657623	2.569309	1.251465	-0.849121	0.109863
46633		-16.865605	1.333823	12.730311	-1.084550	2.147924	2.342105	1.228271	-0.877441	0.123047
46634		-13.256565	-2.404498	12.722922	-1.891149	0.554711	2.119703	1.213867	-0.905762	0.108398
46635		-9.712425	-6.206691	10.327511	-1.796522	-0.643897	2.092353	1.201416	-0.923096	0.089355
46636		-4.010837	-4.961145	8.560064	-1.455905	-1.341255	1.919348	1.184814	-0.947021	0.059814
46637		-1.170109	-3.725828	7.391917	-1.342847	-1.371054	1.639813	1.169678	-0.953857	0.034180
46638		-0.555863	-3.280273	6.808695	-1.286024	-1.263309	1.237397	1.167725	-0.962402	0.010742
46639		-0.304980	-3.322741	7.022360	-1.234970	-1.070213	0.849530	1.155029	-0.971191	-0.014648
46640		-1.849126	-3.240374	7.176843	-1.183579	-0.935870	0.504308	1.152832	-0.973633	-0.031738
46641		-3.654078	-2.913024	7.246681	-1.058388	-1.173411	0.169175	1.156982	-0.967041	-0.053223
46642		-4.578818	-2.129752	6.963488	-0.936410	-1.698910	-0.168952	1.154541	-0.958496	-0.093994
46643		-4.202032	-1.576541	6.511812	-0.854990	-2.284720	-0.500152	1.158447	-0.949951	-0.124023
46644		-2.870426	-1.277589	6.212217	-0.794871	-2.702777	-0.782642	1.162109	-0.930420	-0.162842
46645		-1.650424	-0.858192	6.054134	-0.780374	-2.838102	-0.996649	1.172607	-0.919678	-0.203613
46646		-1.843666	-0.446615	5.839639	-0.767652	-2.828481	-1.199399	1.176514	-0.902344	-0.238281
46647		-2.588587	-0.362909	5.986168	-0.712037	-2.840363	-1.374704	1.180176	-0.880859	-0.277100
46648		-3.742604	-0.362292	6.024853	-0.630566	-2.944970	-1.522332	1.185791	-0.857178	-0.315918
46649		-4.444889	-0.438008	6.300648	-0.503563	-3.162803	-1.631611	1.185059	-0.829102	-0.354736
46650		-5.008135	-0.332989	6.704881	-0.408102	-3.389294	-1.723569	1.186279	-0.803223	-0.402344
46651		-5.738745	-0.397705	6.932228	-0.376017	-3.588037	-1.793895	1.185547	-0.781494	-0.438965
46652		-6.594836	-0.575907	7.022028	-0.369612	-3.784758	-1.832769	1.184814	-0.757813	-0.490723
46653		-7.312882	-0.633269	7.312807	-0.384223	-3.969156	-1.879967	1.179443	-0.725342	-0.531982
46654		-8.285680	-0.992992	7.357517	-0.413868	-4.104602	-1.928200	1.180664	-0.697266	-0.577393
46655		-9.224831	-1.145207	7.400214	-0.373094	-4.329330	-2.002645	1.162598	-0.671631	-0.622803
46656		-9.329181	-0.902191	7.687523	-0.338730	-4.545419	-2.118370	1.159424	-0.641357	-0.676758
46657		-9.458195	-0.644698	7.877026	-0.358288	-4.668001	-2.250442	1.145264	-0.606689	-0.730957
46658		-9.777216	-0.922248	8.184216	-0.399319	-4.708031	-2.374351	1.131348	-0.576660	-0.776367
46659		-10.533582	-1.164891	8.629849	-0.381411	-4.721278	-2.472587	1.121338	-0.540039	-0.832764
46660		-11.313458	-1.203889	9.358112	-0.344051	-4.750456	-2.547670	1.111816	-0.507568	-0.886719
46661		-12.184962	-0.732866	10.065054	-0.350424	-4.769666	-2.607203	1.093262	-0.470947	-0.934570
46662		-12.960807	-0.574449	10.644251	-0.432813	-4.803631	-2.636923	1.076660	-0.425537	-0.993164
46663		-13.875618	-0.895785	11.008653	-0.528501	-4.810210	-2.590225	1.044922	-0.388916	-1.047363
46664		-15.372582	-1.916406	11.090750	-0.546837	-4.810294	-2.455795	1.015381	-0.347900	-1.110107
46665		-16.822540	-2.584106	11.443724	-0.426352	-4.851015	-2.228930	0.977295	-0.311523	-1.166504
46666		-18.059146	-1.473510	11.634489	-0.399098	-4.910562	-2.048504	0.932861	-0.274902	-1.220947
46667		-17.937527	-1.092656	11.214825	-0.533729	-4.948209	-1.971573	0.881836	-0.240479	-1.275146
46668		-16.974434	-1.252795	10.282492	-0.672382	-4.829932	-1.949256	0.830322	-0.195313	-1.327637
46669		-15.849297	-1.640661	9.063572	-0.665068	-4.537628	-1.973268	0.774902	-0.154297	-1.371338
46670		-15.211138	-2.050483	8.075092	-0.459554	-4.123721	-2.011999	0.730469	-0.122070	-1.402100
46671		-15.153023	-1.627701	7.104829	-0.168165	-3.664610	-2.068596	0.681641	-0.093994	-1.428467
46672		-14.877635	-0.575767	6.339084	0.074919	-3.232932	-2.186879	0.644043	-0.068115	-1.452637
46673		-14.326313	-0.225400	5.178059	0.270899	-2.808452	-2.302274	0.608643	-0.044434	-1.472412
46674		-16.366688	1.033242	3.176929	0.490687	-2.535462	-2.343199	0.575439	-0.025146	-1.481445
46675		-17.321334	2.409153	0.232829	0.539850	-2.334132	-2.149612	0.544678	-0.014404	-1.496826
46676		-17.022850	4.214272	-3.160164	0.390741	-2.039002	-1.793162	0.515869	0.000732	-1.510010
46677		-16.698399	5.403811	-5.975526	0.083402	-1.529486	-1.253272	0.498291	0.009277	-1.516846
46678		-15.601338	5.068827	-6.995033	-0.266920	-0.843789	-0.591934	0.484863	0.020020	-1.525635
46679		-14.316196	2.192887	-5.889741	-0.356963	-0.071822	0.055957	0.491211	0.026611	-1.521484
46680		-14.729789	-0.688921	-3.721053	-0.065216	0.576955	0.569558	0.502441	0.018066	-1.514648
46681		-15.550094	-2.255813	-1.805809	0.323145	0.991614	0.713357	0.522217	0.005127	-1.508057
46682		-14.299081	-4.365486	-0.731033	0.759953	1.331174	0.440408	0.542236	-0.010010	-1.503418
46683		-13.285704	-4.660120	-0.991226	1.294921	1.945338	0.130565	0.569336	-0.042480	-1.491943
46684		-13.692168	-0.629755	0.116634	1.155477	2.499519	-0.242128	0.608887	-0.057617	-1.476563
46685		3.011721	-10.416044	9.799801	1.140256	2.871335	-0.370507	0.655273	-0.081055	-1.456543
46686		9.669836	-22.765200	20.397793	2.269183	3.584658	0.673851	0.711182	-0.135010	-1.416992
46687		0.852521	6.330801	14.557404	2.658248	4.099875	1.299484	0.762451	-0.173828	-1.388184
46688		-12.663593	6.705406	6.055344	1.635942	4.022819	0.425768	0.815674	-0.210449	-1.346680
46689		-14.818992	4.785209	8.580722	1.382395	3.920575	0.884322	0.868652	-0.238525	-1.315918
46690		-17.042682	7.083311	12.677626	0.716112	3.392978	0.856617	0.910645	-0.260010	-1.281250
46691		-14.150548	3.514491	13.376022	0.114073	2.942673	0.868542	0.947754	-0.270508	-1.246582
46692		-11.449482	2.207751	10.552183	-0.293703	2.738147	0.610465	0.978760	-0.283447	-1.227051
46693		-11.315164	0.208657	9.287632	-0.502136	2.467588	0.343322	1.002686	-0.287598	-1.198975
46694		-9.159567	-1.058966	10.865184	-0.596615	2.254263	0.321653	1.028809	-0.291748	-1.175293
46695		-10.545207	-1.770766	10.530808	-0.611418	2.070194	0.378841	1.050781	-0.293701	-1.153809
46696		-13.217529	-6.236223	6.810479	-0.444278	1.563292	0.182819	1.063965	-0.300293	-1.136475
46697		-7.506396	-2.621101	6.942011	-0.119736	1.099397	0.309107	1.072998	-0.308838	-1.129883
46698		-4.986592	-2.936955	8.825292	-0.047323	0.958733	0.297351	1.086182	-0.317383	-1.112549
46699		-5.707767	-4.120132	8.617769	0.033593	0.886486	0.340245	1.093262	-0.332520	-1.093018
46700		-6.545750	-2.542172	7.915261	0.160268	0.742887	0.364114	1.093506	-0.343262	-1.084229
46701		-6.838514	-1.891074	8.243240	0.195257	0.552053	0.379128	1.100586	-0.360596	-1.071045
46702		-6.652771	-1.422410	8.630198	0.202281	0.408693	0.405141	1.096680	-0.371582	-1.064453
46703		-7.157975	-1.032428	8.230337	0.176762	0.256918	0.308593	1.090576	-0.386719	-1.055664
46704		-6.877416	-1.219246	8.260574	0.163448	0.151966	0.245481	1.090576	-0.391113	-1.051270
46705		-6.219006	-1.649805	8.584484	0.159054	0.097871	0.178747	1.091064	-0.406250	-1.044678
46706		-5.830866	-0.858340	8.469574	0.159155	0.078651	0.133103	1.078125	-0.406250	-1.038330
46707		-5.866526	-1.071397	7.988866	0.123120	0.072107	0.098324	1.080566	-0.414795	-1.038086
46708		-6.280319	-1.123927	8.190084	0.111514	0.059420	0.060492	1.078613	-0.419189	-1.027344
46709		-6.525059	-0.999378	7.971819	0.080425	0.027039	0.010008	1.067871	-0.423584	-1.023193
46710		-6.366323	-1.070957	7.995394	0.086165	-0.036671	-0.025965	1.063477	-0.423584	-1.020996
46711		-6.530705	-0.827277	7.758635	0.133003	-0.155489	-0.073652	1.054932	-0.427979	-1.020996
46712		-6.403682	-1.115886	7.859110	0.215356	-0.319512	-0.150098	1.046387	-0.434326	-1.016602
46713		-6.662888	-1.089981	7.665791	0.293612	-0.451333	-0.225576	1.037598	-0.434326	-1.020996
46714		-6.091896	-1.618468	8.088856	0.355245	-0.559455	-0.255295	1.027100	-0.443115	-1.022949
46715		-5.764143	-1.836611	8.147843	0.361790	-0.532408	-0.245917	1.016357	-0.449707	-1.027100
46716		-5.514556	-2.021527	8.049136	0.332521	-0.444993	-0.202766	1.010010	-0.451904	-1.020752
46717		-5.506143	-1.652334	8.263258	0.292705	-0.361544	-0.150627	1.003418	-0.451904	-1.025146
46718		-5.964700	-1.302555	8.247989	0.246811	-0.267862	-0.118542	0.990723	-0.464844	-1.020752
46719		-5.759306	-1.937440	8.360849	0.208586	-0.199226	-0.091167	0.986572	-0.464844	-1.020752
46720		-5.849242	-1.819149	8.204034	0.176699	-0.126797	-0.061385	0.975830	-0.469238	-1.022705
46721		-6.034103	-1.395059	8.051251	0.145495	-0.067713	-0.039928	0.969238	-0.471436	-1.014160
46722		-5.822991	-1.374423	8.240057	0.116753	-0.024930	-0.025201	0.965088	-0.471436	-1.018555
46723		-5.953341	-1.208041	8.274435	0.088991	0.020219	-0.016366	0.962891	-0.473633	-1.018555
46724		-6.175503	-1.477317	8.101109	0.084189	0.056036	0.000323	0.954346	-0.482422	-1.016357
46725		-5.975442	-1.374507	8.180852	0.076235	0.082201	0.006663	0.950195	-0.484619	-1.016357
46726		-5.851790	-1.364308	8.177627	0.078349	0.102989	0.023814	0.954590	-0.484619	-1.011963
46727		-5.537169	-1.521110	8.268976	0.065391	0.131370	0.035873	0.950439	-0.490967	-1.013916
46728		-6.211121	-0.776546	7.990754	0.050601	0.158962	0.040828	0.946045	-0.495361	-1.013916
46729		-6.160022	-0.854542	8.047065	0.026670	0.165922	0.038764	0.941895	-0.497559	-1.009766
46730		-6.056591	-1.073192	8.082717	0.015122	0.171941	0.044479	0.935547	-0.501953	-1.009766
46731		-6.098913	-1.554498	7.892395	0.009530	0.178583	0.040798	0.939941	-0.506348	-1.009521
46732		-6.139108	-1.548342	7.801501	0.022841	0.168636	0.059059	0.935547	-0.504150	-1.007568
46733		-5.733908	-1.800624	7.933587	0.038733	0.171106	0.063253	0.931396	-0.510498	-0.998779
46734		-6.018576	-1.144538	8.083295	0.049667	0.172689	0.078290	0.920654	-0.512939	-1.011719
46735		-6.192626	-1.099299	8.019539	0.033154	0.199376	0.076134	0.918701	-0.521484	-1.002930
46736		-6.094871	-1.156861	8.324038	0.023354	0.215889	0.084358	0.918701	-0.523682	-1.002930
46737		-6.015114	-1.096847	8.443067	0.010653	0.239164	0.086646	0.923096	-0.525879	-1.000732
46738		-6.621572	-0.928583	8.005223	-0.005026	0.277524	0.098531	0.919189	-0.534424	-1.000732
46739		-6.252375	-0.978138	8.189823	-0.019192	0.298686	0.089499	0.919189	-0.536621	-1.002686
46740		-6.169064	-0.985491	8.151706	-0.017083	0.325090	0.096870	0.925781	-0.543213	-1.002686
46741		-6.506248	-1.176451	7.967184	-0.009385	0.354417	0.103536	0.919434	-0.543213	-1.000488
46742		-6.033336	-1.748195	8.296035	0.001703	0.391861	0.116563	0.921875	-0.551758	-0.998291
46743		-6.221674	-1.769797	8.298308	0.008398	0.456926	0.152702	0.919678	-0.556152	-0.993896
46744		-6.402144	-1.490857	8.239879	0.014038	0.522009	0.179078	0.926270	-0.556152	-0.989502
46745		-6.364716	-1.243083	8.348010	0.015890	0.576929	0.191607	0.930908	-0.562744	-0.985107
46746		-6.684480	-1.162945	8.206986	-0.001923	0.650597	0.189334	0.933350	-0.571289	-0.982910
46747		-6.313023	-0.859295	8.493241	-0.015114	0.720976	0.186844	0.937744	-0.573486	-0.978516
46748		-6.651888	-0.864815	8.440389	-0.042801	0.808622	0.176933	0.942139	-0.575684	-0.967773
46749		-6.628909	-0.663666	8.539520	-0.081283	0.882506	0.166045	0.946533	-0.582031	-0.961182
46750		-6.807922	-0.521514	8.605382	-0.108318	0.979815	0.139766	0.959717	-0.588379	-0.958984
46751		-6.686020	-0.687005	8.640551	-0.139642	1.090676	0.119039	0.970703	-0.586182	-0.952393
46752		-6.690876	-0.932977	8.634962	-0.175970	1.213363	0.115678	0.983643	-0.583984	-0.946045
46753		-6.662790	-1.414388	8.446314	-0.215743	1.327957	0.122090	0.994629	-0.590576	-0.933105
46754		-6.796739	-1.367114	8.240148	-0.236948	1.443802	0.166896	0.999023	-0.592529	-0.922119
46755		-6.687559	-1.517977	7.686807	-0.239985	1.594773	0.210388	1.016602	-0.599121	-0.902832
46756		-4.951263	-1.417085	8.404506	-0.262002	1.787107	0.274700	1.036377	-0.598877	-0.887695
46757		-9.196607	-2.344196	8.736997	-0.201677	1.851902	0.262956	1.049316	-0.596680	-0.872803
46758		-7.362301	-2.193572	8.777031	-0.147741	1.960078	0.322762	1.064697	-0.607422	-0.846680
46759		-3.569274	-2.499242	9.654659	-0.145216	2.291606	0.471744	1.088867	-0.615967	-0.829346
46760		-7.325475	-2.268046	9.024985	-0.126641	2.618027	0.583210	1.102051	-0.615723	-0.799316
46761		-6.454864	-1.880930	9.682735	-0.165643	2.862621	0.634313	1.115479	-0.628662	-0.771240
46762		-5.166597	-2.103265	9.835651	-0.131047	3.199363	0.730518	1.146240	-0.637207	-0.730469
46763		-5.734648	-1.986407	9.396211	-0.127195	3.597340	0.823820	1.161865	-0.647949	-0.687256
46764		-6.047276	-1.711408	9.653053	-0.157602	3.977595	0.956478	1.188232	-0.660645	-0.644287
46765		-5.262886	-2.482324	9.699677	-0.142132	4.385355	1.149250	1.208496	-0.682129	-0.590332
46766		-7.230205	-2.042330	9.919801	-0.074178	4.770079	1.404191	1.226318	-0.692627	-0.521484
46767		-9.953981	-1.489551	9.660345	-0.047988	5.160317	1.496286	1.239990	-0.714111	-0.457031
46768		-16.460325	-3.645783	8.931665	0.021784	5.265297	1.453172	1.251465	-0.729248	-0.390381
46769		-15.280165	-2.781908	9.923604	0.010473	5.307247	1.514833	1.271729	-0.746338	-0.323730
46770		-13.034160	-3.072723	10.026335	-0.339348	5.405704	1.494757	1.265625	-0.763428	-0.255127
46771		-12.113946	-4.453361	10.213582	-0.585677	5.400734	1.675043	1.277344	-0.784912	-0.192627
46772		-12.653338	-4.163673	8.878385	-0.598782	5.342324	1.775301	1.273438	-0.799805	-0.125977
46773		-11.732613	-2.514795	8.352168	-0.768581	5.257220	1.797460	1.265625	-0.823730	-0.063721
46774		-12.226749	-1.876931	7.725824	-1.147240	5.058506	1.837162	1.251221	-0.847412	-0.010010
46775		-10.736107	-2.546337	7.016805	-1.570216	4.840332	1.797866	1.240723	-0.862549	0.037354
46776		-10.809633	-1.595583	6.772373	-1.977872	4.507905	1.797376	1.232910	-0.884033	0.076172
46777		-14.784048	-1.815039	7.803934	-2.363607	3.437540	1.971827	1.209473	-0.903564	0.086914
46778		-16.113466	-3.139079	9.788864	-2.423172	1.699402	2.274476	1.182129	-0.934082	0.087402
46779		-13.894199	-4.804633	10.109503	-2.244050	-0.002715	2.395788	1.167725	-0.962402	0.057861
46780		-8.944521	-4.587596	9.506819	-1.761349	-1.271348	2.320346	1.146729	-0.984131	0.032471
46781		-3.450639	-2.952750	8.242328	-1.514748	-1.859275	1.994303	1.127441	-0.997314	-0.010254
46782		-0.133899	-2.056218	7.081482	-1.416433	-1.899860	1.603087	1.116943	-1.008301	-0.040039
46783		0.648974	-1.531930	7.003107	-1.459748	-1.686478	1.135748	1.106445	-1.019287	-0.067627
46784		-1.433133	-1.860601	6.134348	-1.523348	-1.448956	0.602409	1.104248	-1.021484	-0.095459
46785		-4.118612	-2.422103	5.399398	-1.347253	-1.719009	0.039761	1.105957	-1.006592	-0.134033
46786		-4.235995	-2.599352	5.567784	-1.032525	-2.161551	-0.499490	1.109863	-1.000000	-0.159912
46787		-3.517105	-1.853165	5.877113	-0.740878	-2.502516	-0.948212	1.120361	-0.987061	-0.200684
46788		-3.165809	-0.919801	5.914899	-0.582860	-2.727510	-1.317156	1.124023	-0.967773	-0.233154
46789		-3.096060	-0.350026	5.904958	-0.560303	-2.839179	-1.605437	1.136230	-0.939453	-0.271973
46790		-3.657580	-0.424915	5.858544	-0.588142	-2.805207	-1.807788	1.141846	-0.913574	-0.310791
46791		-5.040581	-0.836940	5.353366	-0.492670	-2.855402	-1.925022	1.152100	-0.889893	-0.341064
46792		-5.586485	-0.869356	5.452770	-0.269810	-3.054458	-1.984757	1.157715	-0.863770	-0.373535
46793		-5.535162	-0.091000	5.729783	-0.094557	-3.233344	-2.002362	1.165527	-0.835693	-0.410400
46794		-5.504542	0.703839	5.863406	-0.058379	-3.367734	-2.006549	1.164795	-0.809814	-0.451416
46795		-5.524640	1.250903	6.245719	-0.190957	-3.440846	-1.991444	1.163818	-0.781738	-0.486328
46796		-6.161302	1.498976	6.644427	-0.467465	-3.453591	-1.938287	1.165039	-0.751465	-0.525146
46797		-7.577174	1.277461	6.665067	-0.716363	-3.573049	-1.900143	1.160156	-0.732178	-0.570557
46798		-8.207943	0.234335	6.711711	-0.811948	-3.784371	-1.827901	1.154785	-0.697510	-0.613770
46799		-8.656518	-0.149571	6.751548	-0.767197	-3.976434	-1.718855	1.145508	-0.680420	-0.665527
46800		-8.977968	-0.274451	6.857370	-0.697673	-4.123083	-1.611208	1.129395	-0.654541	-0.708740
46801		-9.116121	-0.254943	6.997462	-0.659994	-4.196252	-1.561473	1.115479	-0.628662	-0.754150
46802		-9.521033	-0.327305	7.415228	-0.646010	-4.211221	-1.583033	1.103760	-0.602783	-0.803955
46803		-10.465531	-0.613348	7.665351	-0.639038	-4.228434	-1.657295	1.087891	-0.579102	-0.849365
46804		-11.181155	-1.268977	7.773451	-0.584171	-4.253215	-1.770875	1.071777	-0.555420	-0.898926
46805		-11.433749	-1.730277	8.136496	-0.459382	-4.247409	-1.892749	1.053467	-0.520996	-0.940186
46806		-11.856322	-1.816676	8.560709	-0.335315	-4.201353	-2.066311	1.032959	-0.495117	-0.985840
46807		-12.315948	-1.746760	9.289158	-0.228592	-4.169374	-2.248883	1.012451	-0.464844	-1.035645
46808		-13.740948	-0.802498	9.874738	-0.228743	-4.111325	-2.442567	0.998291	-0.428223	-1.076904
46809		-15.632461	-0.944795	9.580177	-0.274192	-4.139111	-2.589985	0.969238	-0.397949	-1.120361
46810		-16.689738	-2.307941	9.002928	-0.119738	-4.238164	-2.559684	0.942139	-0.363525	-1.167969
46811		-16.380129	-1.998193	8.529436	0.165104	-4.268761	-2.375941	0.908691	-0.337891	-1.213623
46812		-15.394102	-0.338196	8.135530	0.265442	-4.174009	-2.198402	0.868652	-0.307617	-1.257080
46813		-14.082246	0.129156	7.673963	0.146259	-3.953464	-2.066837	0.830811	-0.283936	-1.296143
46814		-13.250628	-0.513542	7.260185	0.010744	-3.628497	-1.900763	0.797607	-0.258301	-1.331055
46815		-13.448371	-0.940602	6.704976	-0.051765	-3.287200	-1.709525	0.764160	-0.234619	-1.353027
46816		-13.784239	-0.497923	6.118027	-0.060975	-3.028745	-1.578736	0.726563	-0.213135	-1.381348
46817		-13.685382	0.042058	5.756860	-0.124135	-2.754530	-1.542392	0.695557	-0.191406	-1.405273
46818		-13.843473	-0.016475	4.810743	-0.179857	-2.492137	-1.579803	0.662109	-0.165527	-1.427490
46819		-13.199965	-0.666205	3.704513	-0.084158	-2.269376	-1.624399	0.635742	-0.152832	-1.440674
46820		-11.843184	-1.125285	3.068033	0.156650	-1.975893	-1.611897	0.617676	-0.135498	-1.453857
46821		-12.033187	0.173342	2.428512	0.372941	-1.669524	-1.535471	0.595703	-0.126953	-1.460449
46822		-12.145866	0.802538	1.553187	0.342259	-1.431726	-1.387444	0.573975	-0.120361	-1.467041
46823		-11.714078	0.960443	0.607949	0.180328	-1.153352	-1.157478	0.564697	-0.107422	-1.480225
46824		-11.499469	0.328507	-0.322333	0.042815	-0.778083	-0.883533	0.551514	-0.103271	-1.482422
46825		-12.010807	-0.175864	-1.015733	0.023168	-0.380071	-0.618805	0.551270	-0.094482	-1.484863
46826		-12.006789	-0.914656	-1.492355	0.095956	0.050634	-0.434122	0.555908	-0.101074	-1.486816
46827		-12.714767	-1.965170	-2.702189	0.410524	0.594899	-0.261705	0.566895	-0.107422	-1.480225
46828		-14.173227	-2.365775	-2.934293	0.873138	1.029385	-0.157859	0.584961	-0.126953	-1.475586
46829		-13.978747	-2.164934	-3.034828	1.396753	1.502566	-0.109675	0.603027	-0.155029	-1.466309
46830		-8.279240	-2.188261	-1.411487	1.901951	2.184042	-0.112297	0.638916	-0.191895	-1.444092
46831		3.862820	-5.510699	13.059471	2.122004	3.190632	0.443323	0.683594	-0.232666	-1.411133
46832		4.325572	-1.223350	21.445915	2.083374	4.055409	0.629687	0.745605	-0.271484	-1.373779
46833		-6.182088	8.369500	12.107322	1.690179	3.974619	0.296194	0.802734	-0.288574	-1.345459
46834		-14.130306	8.354522	8.126861	0.960219	3.759458	0.232297	0.849121	-0.312256	-1.308350
46835		-15.573704	7.194495	8.847586	0.499710	3.470364	0.584849	0.895264	-0.331543	-1.269287
46836		-14.534719	6.845424	12.854324	-0.078895	3.039929	0.791195	0.926025	-0.340088	-1.239014
46837		-11.914194	3.012933	13.250107	-0.666740	2.783440	0.553526	0.956543	-0.344238	-1.213135
46838		-11.178142	-1.409019	8.964935	-0.913813	2.539050	0.234905	0.989258	-0.343994	-1.191650
46839		-12.083984	-3.846544	7.644835	-0.907836	2.231677	0.184188	1.010742	-0.339600	-1.161621
46840		-14.876049	-6.871169	10.576117	-0.703959	1.844212	0.231657	1.028320	-0.339355	-1.142334
46841		-7.872184	-6.700663	7.047546	-0.153185	1.286508	0.220434	1.041504	-0.347900	-1.129395
46842		-8.096530	-3.340908	7.740017	0.063728	0.963492	0.273547	1.043945	-0.358887	-1.120605
46843		-5.205947	-2.750220	8.405382	0.129245	0.779111	0.242556	1.046631	-0.369629	-1.103271
46844		-5.678177	-3.234920	7.587885	0.223860	0.745897	0.289927	1.046875	-0.378174	-1.092529
46845		-5.941392	-1.326825	8.358476	0.287072	0.634472	0.360051	1.049561	-0.393311	-1.083496
46846		-6.629777	-0.085541	8.774635	0.221507	0.473495	0.356608	1.054199	-0.404053	-1.068359
46847		-6.931431	0.422704	8.986759	0.138361	0.338459	0.301209	1.047852	-0.412842	-1.061768
46848		-6.722007	-0.493013	8.928603	0.064003	0.218947	0.216554	1.043945	-0.423584	-1.057373
46849		-6.393604	-2.102323	8.438926	0.063003	0.128245	0.165553	1.039551	-0.425781	-1.055176
46850		-5.927072	-2.150591	8.291723	0.100779	0.078812	0.134662	1.035400	-0.432373	-1.042480
46851		-4.877649	-1.570466	8.362012	0.099972	0.101124	0.114928	1.033447	-0.440918	-1.037842
46852		-5.389169	-1.882515	8.316461	0.097388	0.110848	0.112751	1.020508	-0.443115	-1.033691
46853		-6.241818	-0.807002	8.133251	0.120650	0.086640	0.096938	1.014160	-0.447510	-1.027344
46854		-6.188737	-1.096512	8.179670	0.092119	0.046030	0.056966	1.014404	-0.458496	-1.029297
46855		-6.402136	-1.271581	8.426457	0.098988	-0.018034	0.026171	1.001465	-0.456299	-1.022949
46856		-6.599177	-1.733196	8.078727	0.127767	-0.089849	-0.009853	1.001709	-0.462646	-1.020752
46857		-6.063330	-1.525930	8.277911	0.181438	-0.184365	-0.050050	0.986572	-0.467041	-1.020752
46858		-6.158939	-1.089463	8.105086	0.253648	-0.250370	-0.069881	0.982422	-0.473633	-1.020508
46859		-6.240798	-0.621177	8.422415	0.287282	-0.293044	-0.116037	0.978027	-0.475830	-1.020508
46860		-6.096122	-0.855459	8.432778	0.267930	-0.260116	-0.144886	0.969482	-0.480225	-1.020508
46861		-5.464845	-1.183826	8.735203	0.200439	-0.186435	-0.143774	0.965332	-0.482422	-1.020508
46862		-5.718604	-1.615103	8.468302	0.141692	-0.081279	-0.120143	0.952148	-0.482422	-1.022705
46863		-5.699073	-1.761143	8.386822	0.113225	-0.014367	-0.088252	0.943604	-0.486816	-1.009766
46864		-5.607718	-1.946361	8.274847	0.116098	0.033189	-0.031204	0.954590	-0.489014	-1.016113
46865		-6.016128	-1.840240	7.966182	0.095604	0.065882	-0.002195	0.939697	-0.495361	-1.016113
46866		-5.964215	-1.771688	8.080877	0.083271	0.080381	0.017820	0.937500	-0.495361	-1.016113
46867		-5.962978	-2.001766	8.018797	0.077590	0.097110	0.036210	0.935547	-0.501953	-1.009766
46868		-6.099515	-1.446154	8.198554	0.084532	0.112938	0.073204	0.931152	-0.504150	-1.011719
46869		-5.920506	-1.271210	8.226117	0.067474	0.145119	0.090607	0.929199	-0.510742	-1.011719
46870		-5.983666	-0.718015	8.405905	0.047413	0.156169	0.095707	0.920654	-0.512939	-1.009521
46871		-6.232911	-0.739403	8.276789	0.016703	0.192684	0.087904	0.916504	-0.521484	-1.009521
46872		-5.927712	-1.037207	8.325439	-0.003111	0.222395	0.079464	0.914307	-0.519287	-1.009521
46873		-6.204693	-1.036665	8.199448	0.010747	0.260072	0.079129	0.914551	-0.528076	-1.009277
46874		-5.914331	-1.580247	8.311510	0.035015	0.292340	0.073886	0.918945	-0.530273	-1.004883
46875		-6.009142	-1.362865	8.500577	0.078481	0.343435	0.086178	0.916748	-0.528076	-1.005127
46876		-6.310952	-1.352081	7.941542	0.048854	0.400228	0.112750	0.916992	-0.536621	-1.002686
46877		-6.411505	-0.898362	7.763538	0.016342	0.424053	0.114250	0.916992	-0.541016	-1.000488
46878		-6.045740	-0.925891	7.940114	-0.005205	0.429253	0.102436	0.917236	-0.545410	-1.000488
46879		-6.253904	-1.016316	7.870667	-0.017769	0.460546	0.103758	0.917236	-0.547607	-1.000488
46880		-6.323813	-1.016918	7.922590	-0.019995	0.494166	0.105160	0.924072	-0.556152	-0.995850
46881		-6.241462	-1.058587	8.102096	-0.025215	0.532169	0.099370	0.926270	-0.553955	-0.985352
46882		-6.557411	-0.849411	8.076615	-0.034469	0.589660	0.092656	0.930664	-0.558350	-0.985107
46883		-6.687261	-1.364784	8.004643	-0.061073	0.626392	0.093612	0.932861	-0.560547	-0.985107
46884		-6.676467	-1.325645	8.033139	-0.073650	0.661797	0.118842	0.937500	-0.564697	-0.976563
46885		-6.625794	-1.333746	8.118308	-0.092469	0.714393	0.147637	0.935303	-0.571289	-0.976318
46886		-6.580028	-1.598952	8.013530	-0.111176	0.766137	0.185500	0.946289	-0.573486	-0.963379
46887		-6.540900	-1.570955	8.051389	-0.126131	0.820814	0.220202	0.955322	-0.579834	-0.958984
46888		-6.601336	-1.168964	8.242256	-0.142458	0.903184	0.242208	0.959717	-0.582031	-0.954590
46889		-6.612984	-1.494649	8.043360	-0.166092	0.992589	0.271287	0.968506	-0.588379	-0.952393
46890		-6.619995	-0.900361	7.887925	-0.166611	1.078430	0.282358	0.970703	-0.588379	-0.946045
46891		-6.994197	-0.191088	7.937939	-0.163163	1.144159	0.237446	0.990479	-0.594727	-0.930908
46892		-6.986959	-0.095640	8.055598	-0.162870	1.252759	0.175443	0.990479	-0.592773	-0.928711
46893		-7.125754	-0.037486	8.416383	-0.176814	1.374201	0.131711	1.005859	-0.601318	-0.913574
46894		-7.055277	-0.401012	8.602225	-0.196809	1.537572	0.087270	1.023193	-0.596924	-0.905029
46895		-6.636572	-1.282920	8.679021	-0.206858	1.720596	0.112916	1.032227	-0.605469	-0.881104
46896		-6.734548	-1.998173	8.483395	-0.219764	1.940275	0.186019	1.049561	-0.607422	-0.864014
46897		-6.874655	-2.166332	8.125290	-0.208650	2.153776	0.305369	1.066895	-0.607422	-0.846680
46898		-4.816128	-2.758150	8.232588	-0.199031	2.429072	0.463136	1.084717	-0.618164	-0.816650
46899		-6.814587	-2.973693	8.978469	-0.133858	2.631204	0.619852	1.106689	-0.624512	-0.790771
46900		-10.084406	-3.393580	8.123407	-0.048028	2.759602	0.662941	1.119873	-0.633057	-0.760498
46901		-3.755316	-2.897493	10.051514	-0.032823	3.040948	0.875563	1.139893	-0.645752	-0.723877
46902		-5.493075	-3.343968	9.457125	-0.017077	3.567803	1.133223	1.157715	-0.658691	-0.680664
46903		-7.342990	-2.292465	9.284814	0.007902	3.934134	1.271262	1.177979	-0.680176	-0.626953
46904		-5.139653	-1.807089	10.209104	0.034773	4.332766	1.424259	1.202393	-0.695068	-0.581543
46905		-6.103501	-1.446549	9.799764	0.050328	4.899802	1.504862	1.216064	-0.714355	-0.517090
46906		-8.528784	0.069728	9.414799	0.044890	5.369332	1.559296	1.229980	-0.735840	-0.450195
46907		-16.820110	-0.325548	8.420459	-0.018270	5.542840	1.348813	1.250000	-0.750732	-0.375000
46908		-16.611420	-1.717236	9.223062	0.049557	5.410698	1.328637	1.259277	-0.765869	-0.304199
46909		-13.784553	-3.788781	10.461892	-0.140110	5.458581	1.270501	1.263916	-0.776367	-0.237793
46910		-11.538205	-4.456523	11.799970	-0.410468	5.566062	1.446469	1.262451	-0.793457	-0.162598
46911		-12.474026	-5.099033	11.104887	-0.496785	5.710178	1.680665	1.258789	-0.817139	-0.091553
46912		-12.811979	-2.985138	10.158255	-0.654463	5.764554	1.798832	1.252930	-0.836670	-0.022949
46913		-14.249017	-2.463680	9.613795	-1.066554	5.606005	1.811547	1.238525	-0.855957	0.035156
46914		-14.610736	-3.873850	8.243068	-1.520454	5.190339	1.789094	1.223877	-0.877441	0.086670
46915		-12.431166	-3.689699	6.179471	-1.839934	4.719128	1.783823	1.200684	-0.894775	0.129639
46916		-15.373291	-2.477493	7.924682	-1.992011	3.495853	1.879305	1.183838	-0.914307	0.144775
46917		-20.109769	-4.613348	12.650486	-2.067649	1.262218	1.843965	1.176025	-0.940430	0.132324
46918		-14.971531	-7.589071	12.150109	-1.849998	-0.748049	1.709882	1.163086	-0.951416	0.106934
46919		-7.843367	-6.696775	11.453159	-1.245725	-2.182043	1.565147	1.150635	-0.966797	0.072754
46920		-1.116053	-3.857551	9.411353	-1.014942	-2.568978	1.247778	1.146484	-0.977783	0.028076
46921		0.925669	-2.344286	8.079449	-1.035031	-2.544002	0.906261	1.135742	-0.986572	0.000488
46922		1.169332	-1.849140	7.676194	-1.230149	-2.307108	0.555218	1.133545	-0.982178	-0.033936
46923		-0.511755	-2.188167	7.041703	-1.407637	-2.106717	0.269365	1.131104	-0.975830	-0.072510
46924		-2.892380	-2.924555	6.788401	-1.422326	-2.262709	0.040577	1.133301	-0.976074	-0.113037
46925		-4.435781	-2.443464	6.560979	-1.334748	-2.684599	-0.198838	1.132813	-0.967529	-0.164551
46926		-4.288225	-1.333627	6.249439	-1.287662	-3.224042	-0.512655	1.132324	-0.952393	-0.207520
46927		-3.027139	-1.074919	5.659089	-1.335133	-3.583340	-0.858832	1.131836	-0.937256	-0.257080
46928		-1.833619	-1.263297	5.215430	-1.341595	-3.687874	-1.150348	1.133301	-0.913574	-0.304443
46929		-1.682759	-1.180435	5.062623	-1.307698	-3.563178	-1.386849	1.138916	-0.889893	-0.358398
46930		-2.737330	-1.095874	5.105715	-1.273333	-3.312788	-1.603085	1.140381	-0.868408	-0.401367
46931		-4.489706	-1.455811	5.218039	-1.151305	-3.194840	-1.808824	1.145996	-0.835938	-0.442627
46932		-6.176065	-1.103089	5.598928	-0.976230	-3.262636	-1.979670	1.147217	-0.805664	-0.492188
46933		-7.270960	-0.638148	5.886547	-0.860565	-3.521668	-2.142602	1.150391	-0.770996	-0.524902
46934		-7.507256	-0.109980	6.132177	-0.817884	-3.850221	-2.231587	1.149658	-0.742920	-0.576660
46935		-7.284960	0.282115	6.343669	-0.908612	-4.080177	-2.262530	1.148682	-0.712891	-0.624268
46936		-6.970620	0.232619	6.819601	-1.065371	-4.169869	-2.245225	1.141113	-0.680420	-0.680420
46937		-7.958895	0.950329	7.713500	-1.270652	-4.125012	-2.208360	1.135498	-0.639404	-0.730469
46938		-10.767678	1.831305	7.921007	-1.486022	-4.311712	-2.266690	1.123535	-0.604736	-0.784424
46939		-12.184354	1.282355	7.825409	-1.680986	-4.646641	-2.298700	1.106934	-0.563965	-0.845215
46940		-12.311097	-0.020796	7.544736	-1.703210	-4.851014	-2.241024	1.090332	-0.518555	-0.903809
46941		-11.990136	-0.959817	7.320155	-1.513528	-4.824290	-2.125507	1.069580	-0.477539	-0.966553
46942		-12.243181	-1.196196	7.457696	-1.243049	-4.639564	-2.068562	1.044434	-0.445313	-1.020752
46943		-12.847092	-1.201594	8.051669	-0.956946	-4.475141	-2.116316	1.023682	-0.404297	-1.064209
46944		-13.486534	-1.020016	8.830250	-0.752417	-4.361559	-2.226317	0.994385	-0.367676	-1.125000
46945		-14.141109	-1.519502	9.339868	-0.597696	-4.320440	-2.322234	0.962891	-0.335449	-1.170654
46946		-14.803116	-1.808627	9.730575	-0.448700	-4.297729	-2.362979	0.931152	-0.294434	-1.212158
46947		-15.211800	-1.607321	9.860319	-0.309561	-4.283443	-2.407294	0.893066	-0.257813	-1.260010
46948		-15.324741	-1.259999	9.914727	-0.231245	-4.233070	-2.492154	0.848633	-0.221191	-1.301514
46949		-15.697555	-1.010971	10.058006	-0.201858	-4.108393	-2.612360	0.814941	-0.184326	-1.336426
46950		-16.509582	-1.428780	9.702848	-0.137113	-3.971435	-2.763884	0.774658	-0.149902	-1.369385
46951		-16.502082	-2.050411	8.883170	0.053667	-3.818725	-2.871790	0.725830	-0.113281	-1.400146
46952		-15.914722	-2.043179	7.912148	0.320968	-3.557382	-2.926885	0.686035	-0.089600	-1.430664
46953		-15.358224	-1.238331	6.540833	0.556572	-3.209547	-2.992317	0.646240	-0.065918	-1.448486
46954		-13.865401	-0.345714	5.305346	0.752970	-2.794564	-3.078982	0.610840	-0.046631	-1.463867
46955		-13.172560	1.296061	3.636830	0.911665	-2.309916	-3.160863	0.582031	-0.029297	-1.483643
46956		-14.337249	1.515108	1.242361	0.939842	-1.876476	-3.064688	0.555664	-0.020752	-1.496582
46957		-15.586276	2.680464	-1.152644	0.936828	-1.517377	-2.755323	0.533691	-0.007813	-1.503418
46958		-16.664079	4.724218	-3.311538	0.746797	-1.168096	-2.316642	0.520264	-0.001465	-1.514404
46959		-16.277551	6.231912	-5.059428	0.283986	-0.787880	-1.735337	0.507080	0.004883	-1.512451
46960		-13.964882	4.748749	-5.291823	-0.099255	-0.206638	-1.030362	0.515625	0.011475	-1.514648
46961		-12.962397	1.285127	-4.446709	0.048263	0.510438	-0.262557	0.522217	0.011475	-1.508057
46962		-14.729306	0.433751	-2.726086	0.466060	1.023342	0.285906	0.533447	-0.003662	-1.505615
46963		-13.806711	-1.767458	-1.442631	0.945454	1.397457	0.507171	0.553711	-0.029541	-1.494385
46964		-13.584363	-0.587353	-1.155051	1.274683	1.871024	0.657124	0.589355	-0.053223	-1.487305
46965		-8.326068	0.183552	1.907368	1.272837	2.361288	0.579430	0.629150	-0.083496	-1.460938
46966		5.513553	-12.424660	17.970147	1.444682	2.771726	1.044618	0.673828	-0.120117	-1.443115
46967		9.604559	-9.715174	20.925959	2.184151	3.693347	1.638666	0.720947	-0.171875	-1.416260
46968		-8.239605	9.867809	10.032409	1.758514	3.856452	1.051416	0.776123	-0.202148	-1.385498
46969		-15.064678	5.222978	7.462422	0.918724	3.928664	0.705259	0.824707	-0.225586	-1.344238
46970		-18.376816	8.634691	11.205920	0.417489	3.415793	0.990315	0.866455	-0.238525	-1.311768
46971		-14.590647	5.691756	14.008802	-0.445245	2.874806	0.866971	0.901367	-0.244873	-1.290039
46972		-11.465438	-0.300171	11.824740	-0.842209	2.631850	0.693011	0.933838	-0.242432	-1.266357
46973		-11.021343	-3.663597	9.421208	-0.875114	2.444512	0.390618	0.964600	-0.246582	-1.240479
46974		-11.355113	-3.735802	8.310062	-0.771909	2.134493	0.226480	0.992920	-0.248535	-1.220947
46975		-8.713735	-4.905721	8.752775	-0.602274	1.921280	0.335868	1.014893	-0.259277	-1.199463
46976		-8.078759	-7.167263	8.566765	-0.408625	1.786076	0.399802	1.028076	-0.265869	-1.184326
46977		-8.717688	-7.624001	5.909197	0.125838	1.518989	0.442553	1.043701	-0.280762	-1.164551
46978		-6.937814	-2.107761	6.970917	0.342614	1.207379	0.435102	1.057373	-0.293701	-1.147217
46979		-6.310098	-1.597516	8.554270	0.330674	1.054233	0.391719	1.062012	-0.306641	-1.132080
46980		-5.916099	-1.971589	8.840578	0.349874	0.965281	0.360840	1.064697	-0.326172	-1.114502
46981		-6.626820	-0.303190	8.909883	0.304436	0.855481	0.286952	1.071777	-0.343506	-1.103516
46982		-7.101836	0.238914	8.772012	0.191489	0.735012	0.244833	1.076416	-0.347656	-1.092773
46983		-7.386576	-0.288950	8.556095	0.102916	0.574739	0.172920	1.078857	-0.358643	-1.081787
46984		-7.701611	-0.365768	8.026663	0.063322	0.386899	0.107904	1.081299	-0.369385	-1.073242
46985		-6.571852	-1.678861	8.023198	0.031089	0.239721	0.078981	1.076904	-0.367188	-1.060303
46986		-5.767357	-2.498156	8.051672	0.065012	0.188068	0.084470	1.066406	-0.380127	-1.058105
46987		-6.200067	-2.753902	7.584221	0.114011	0.130637	0.093780	1.066650	-0.382324	-1.053711
46988		-6.122492	-3.073085	7.645293	0.178727	0.050133	0.098664	1.062256	-0.386719	-1.053711
46989		-6.053803	-2.740366	7.891864	0.231080	-0.010199	0.103653	1.053955	-0.399658	-1.051270
46990		-6.704739	-1.628002	7.835316	0.246370	-0.079108	0.088508	1.049805	-0.404053	-1.040527
46991		-6.789060	-0.872427	7.938279	0.262992	-0.160650	0.081292	1.043457	-0.410645	-1.038330
46992		-6.572604	-0.827264	8.177285	0.237846	-0.224860	0.048640	1.037109	-0.415039	-1.038330
46993		-6.655059	-1.521729	7.812774	0.238758	-0.281021	0.012689	1.022217	-0.423584	-1.036133
46994		-6.585794	-1.394291	7.969626	0.249523	-0.330087	-0.034882	1.011475	-0.427979	-1.036133
46995		-6.457715	-1.551762	7.929042	0.249085	-0.348412	-0.070104	1.007324	-0.432373	-1.038330
46996		-5.878464	-1.873070	8.159273	0.244698	-0.320716	-0.084574	0.996582	-0.436768	-1.038330
46997		-5.840619	-2.200016	7.976305	0.254207	-0.298518	-0.052301	0.989990	-0.441162	-1.042480
46998		-5.786533	-1.864129	7.875280	0.256961	-0.280997	-0.009023	0.972900	-0.447754	-1.040283
46999		-6.011117	-1.373077	8.040240	0.243443	-0.257819	0.013570	0.975342	-0.452148	-1.040283
47000		-6.281010	-1.481687	7.913618	0.208480	-0.197928	0.011118	0.962402	-0.456299	-1.040283
47001		-6.002023	-1.728683	8.276107	0.175359	-0.166902	0.012931	0.960205	-0.460693	-1.033691
47002		-6.068740	-1.473146	8.172999	0.151462	-0.101845	0.033037	0.954102	-0.469482	-1.040039
47003		-5.858025	-1.468326	8.112026	0.126765	-0.064432	0.035073	0.938721	-0.469482	-1.038086
47004		-6.201205	-0.989182	7.979131	0.099054	-0.032319	0.045184	0.941162	-0.476074	-1.037842
47005		-6.090987	-1.229335	8.069720	0.076642	-0.010971	0.050819	0.934570	-0.476074	-1.035645
47006		-6.085241	-1.421858	8.108002	0.051539	0.016560	0.046271	0.928223	-0.480469	-1.035645
47007		-6.106215	-1.591066	7.901772	0.036730	0.040453	0.053795	0.928223	-0.480469	-1.035645
47008		-6.105326	-1.550660	7.825603	0.034300	0.073584	0.066678	0.915527	-0.491211	-1.039795
47009		-5.894934	-1.628763	7.979964	0.032392	0.086213	0.079029	0.917725	-0.491211	-1.037842
47010		-5.848411	-1.655127	8.191795	0.036845	0.100224	0.105762	0.913574	-0.495605	-1.039795
47011		-6.107796	-1.766326	8.000814	0.060582	0.143004	0.134638	0.907227	-0.500000	-1.035400
47012		-6.214554	-1.162987	8.109444	0.061656	0.167637	0.128692	0.905273	-0.506592	-1.039551
47013		-6.113337	-0.970160	8.331625	0.034859	0.191254	0.122072	0.902832	-0.504395	-1.035400
47014		-6.197417	-1.157130	8.246889	0.030352	0.219519	0.106811	0.898682	-0.510742	-1.035400
47015		-6.528332	-0.886975	7.955171	0.032659	0.250871	0.105252	0.901123	-0.517334	-1.039551
47016		-6.355572	-0.741716	8.216536	0.008617	0.287602	0.073696	0.901123	-0.519531	-1.032959
47017		-6.179930	-0.838838	8.302285	-0.020836	0.336489	0.053179	0.894775	-0.521729	-1.032959
47018		-6.138993	-1.225383	8.337656	-0.063928	0.404368	0.031508	0.899170	-0.519531	-1.031006
47019		-6.267873	-1.596829	8.389847	-0.047247	0.471734	0.057820	0.903564	-0.523682	-1.022217
47020		-6.447397	-1.587299	8.132900	-0.033828	0.533520	0.081621	0.901611	-0.534668	-1.022217
47021		-6.271867	-1.566995	8.328543	-0.034422	0.585054	0.090628	0.908203	-0.534668	-1.020020
47022		-6.700633	-1.277057	8.085419	-0.040766	0.645566	0.107328	0.908203	-0.534668	-1.020020
47023		-6.625928	-1.117983	8.122362	-0.062581	0.698405	0.094519	0.915039	-0.545410	-1.011230
47024		-6.466380	-1.334567	8.094961	-0.073098	0.764840	0.087901	0.923584	-0.541016	-1.004883
47025		-6.579952	-0.922038	8.169252	-0.078054	0.842122	0.090629	0.927979	-0.545410	-1.006836
47026		-6.665713	-0.922272	8.215478	-0.111679	0.926391	0.076450	0.936768	-0.547363	-0.996094
47027		-6.336931	-0.867547	8.349437	-0.145705	1.016547	0.062282	0.945557	-0.549561	-0.993896
47028		-6.385487	-0.701626	8.593787	-0.186954	1.134326	0.039193	0.952148	-0.547363	-0.978760
47029		-7.009583	-0.627747	8.245735	-0.244394	1.248069	0.019826	0.967529	-0.553711	-0.974365
47030		-6.651396	-0.667694	8.419130	-0.293388	1.335197	-0.004875	0.971680	-0.551514	-0.961670
47031		-7.103053	-1.012521	8.132963	-0.348782	1.466905	-0.017508	0.995361	-0.544922	-0.948730
47032		-6.832198	-1.433730	8.151387	-0.371232	1.597147	-0.008295	1.006348	-0.547119	-0.940186
47033		-6.483700	-2.315341	8.342737	-0.370348	1.741802	0.023715	1.021729	-0.546875	-0.920654
47034		-6.455953	-2.688000	8.174986	-0.354914	1.938572	0.112033	1.043457	-0.549072	-0.905518
47035		-6.859080	-2.626877	8.198509	-0.342190	2.116534	0.189072	1.060791	-0.546875	-0.884277
47036		-5.952911	-2.519165	7.848156	-0.327401	2.413216	0.298699	1.078125	-0.548828	-0.864746
47037		-5.419675	-2.465532	8.942741	-0.304968	2.664330	0.440580	1.100342	-0.561768	-0.832520
47038		-10.017627	-3.064135	8.008464	-0.246074	2.801595	0.458012	1.124268	-0.559326	-0.806641
47039		-5.560490	-3.111688	8.886432	-0.225271	2.999134	0.633105	1.148438	-0.570068	-0.767822
47040		-4.780170	-3.780886	8.812682	-0.195989	3.416875	0.851495	1.168457	-0.578613	-0.731201
47041		-7.001173	-3.933520	8.455129	-0.150934	3.754377	1.039749	1.190430	-0.591309	-0.688232
47042		-5.591586	-3.941684	9.017029	-0.054276	4.073422	1.227223	1.212891	-0.610596	-0.636475
47043		-6.720309	-3.077497	8.848201	0.016287	4.462377	1.435252	1.228516	-0.625732	-0.580566
47044		-10.427770	-3.024278	8.596769	0.151405	4.787592	1.530342	1.242432	-0.653564	-0.515869
47045		-14.336497	-0.350598	8.623069	0.210584	4.898844	1.488121	1.260498	-0.666504	-0.453369
47046		-15.837561	-2.204300	9.676180	0.278661	4.950036	1.467794	1.274170	-0.687744	-0.386719
47047		-12.009921	-3.999192	10.907239	0.281947	5.021503	1.453866	1.281250	-0.705078	-0.315918
47048		-10.470453	-5.558722	12.276789	0.136635	5.332208	1.706607	1.288574	-0.730713	-0.236328
47049		-11.391888	-5.654757	11.199442	0.249671	5.548416	2.064245	1.285156	-0.756592	-0.167480
47050		-12.985439	-3.513302	11.338092	0.089738	5.689239	2.022766	1.277344	-0.778076	-0.092285
47051		-14.181817	-2.606802	11.599591	-0.454289	5.927188	2.170552	1.267334	-0.803955	-0.012695
47052		-16.460287	-3.930637	9.645674	-0.831474	5.670736	2.258932	1.252686	-0.825439	0.049561
47053		-14.900626	-4.325744	7.794928	-1.053126	5.150621	2.229220	1.227783	-0.857910	0.107666
47054		-13.604996	-2.387661	5.665715	-1.100724	4.173778	2.248532	1.213379	-0.881836	0.137939
47055		-20.189675	-1.533486	12.512639	-1.463749	2.087700	2.020379	1.194336	-0.896973	0.146729
47056		-13.946114	-5.415763	13.344520	-1.784545	0.186955	1.937017	1.172852	-0.912354	0.127686
47057		-6.951092	-7.515297	11.337293	-1.374769	-0.953199	1.913483	1.162842	-0.940674	0.108887
47058		-1.272411	-4.713260	9.435329	-1.098776	-1.363448	1.680767	1.156738	-0.951416	0.087646
47059		-0.438406	-4.312534	7.777121	-1.065447	-1.298320	1.362027	1.141846	-0.968994	0.062012
47060		-1.642653	-4.621102	7.137798	-1.036436	-1.302025	0.970284	1.135498	-0.971191	0.036377
47061		-3.220588	-5.286384	6.699869	-0.879806	-1.515014	0.550505	1.128906	-0.973389	0.019287
47062		-4.422281	-4.964462	6.745029	-0.631328	-1.988816	0.070603	1.141846	-0.967041	-0.014893
47063		-3.967656	-4.236020	6.820118	-0.377022	-2.572254	-0.437907	1.143555	-0.956299	-0.040771
47064		-2.984202	-2.886068	6.559584	-0.243353	-3.077340	-0.902334	1.156006	-0.938965	-0.079346
47065		-2.042534	-1.262773	6.069012	-0.336366	-3.438198	-1.309398	1.162109	-0.921631	-0.120361
47066		-1.256635	-0.285094	5.751947	-0.583006	-3.604990	-1.628573	1.169922	-0.897949	-0.169922
47067		-1.286445	-0.237255	5.483755	-0.815913	-3.619314	-1.859158	1.186523	-0.872070	-0.215088
47068		-1.748442	-0.651145	5.406940	-0.892569	-3.589665	-1.980347	1.191895	-0.841797	-0.260498
47069		-2.707058	-0.673751	5.737411	-0.878633	-3.543325	-2.023101	1.201904	-0.811523	-0.308105
47070		-4.221133	-0.023147	6.126712	-0.872104	-3.541829	-2.042958	1.213867	-0.774658	-0.355713
47071		-6.000192	0.565085	6.440395	-0.925269	-3.704970	-2.105673	1.208496	-0.746582	-0.398926
47072		-7.513320	0.900381	6.589791	-1.045073	-3.989836	-2.152478	1.211914	-0.718506	-0.452881
47073		-8.449340	0.781432	6.651332	-1.181203	-4.357466	-2.195115	1.213135	-0.684082	-0.517578
47074		-9.102042	0.157005	6.639844	-1.269746	-4.649215	-2.177205	1.209717	-0.647461	-0.578125
47075		-9.706712	-0.600591	6.517579	-1.205483	-4.940643	-2.124450	1.199951	-0.610596	-0.634277
47076		-9.565979	-0.411016	7.235139	-1.074151	-5.122793	-2.030407	1.183350	-0.573975	-0.701416
47077		-10.799347	1.094183	7.747096	-1.115224	-5.163351	-1.991173	1.167236	-0.546143	-0.770264
47078		-12.278892	1.102261	7.726150	-1.308265	-5.223693	-2.010516	1.153076	-0.509521	-0.833008
47079		-12.952805	0.004836	7.561109	-1.428841	-5.207599	-1.992871	1.125732	-0.470703	-0.893799
47080		-13.089114	-0.993750	7.706242	-1.358733	-5.063991	-1.967868	1.102783	-0.425293	-0.956543
47081		-13.751209	-1.485094	7.936815	-1.135762	-4.866259	-1.980572	1.077881	-0.395264	-1.019287
47082		-14.550458	-1.910299	8.234818	-0.811663	-4.753318	-2.060326	1.048340	-0.356445	-1.067139
47083		-14.332824	-2.067408	8.862083	-0.490425	-4.635720	-2.104526	1.010498	-0.328613	-1.123291
47084		-14.487071	-1.524613	9.297213	-0.306458	-4.455812	-2.127522	0.981201	-0.289795	-1.173340
47085		-15.017166	-1.559236	9.512820	-0.234511	-4.312483	-2.144248	0.945313	-0.259521	-1.216797
47086		-15.151655	-1.880857	10.103983	-0.201945	-4.159059	-2.106125	0.911377	-0.216553	-1.262695
47087		-16.564064	-1.320638	10.599018	-0.291249	-3.908123	-2.057192	0.866943	-0.179932	-1.306396
47088		-18.398056	-0.849298	10.213371	-0.477455	-3.881023	-2.171396	0.826660	-0.143066	-1.334961
47089		-18.556331	-2.133895	9.411871	-0.570178	-3.949426	-2.347824	0.781982	-0.104492	-1.376465
47090		-17.682974	-2.712049	8.233458	-0.325354	-3.902619	-2.514131	0.726563	-0.065674	-1.411621
47091		-16.387180	-1.322032	6.944833	0.104784	-3.712861	-2.713006	0.682129	-0.037598	-1.433838
47092		-14.995148	-1.477088	5.317085	0.519892	-3.350232	-2.831839	0.642578	-0.018311	-1.459961
47093		-13.086652	-1.254963	3.594131	0.914329	-2.776011	-2.750288	0.603027	-0.007568	-1.473145
47094		-13.892765	2.002221	1.601857	1.033209	-2.200390	-2.597433	0.572266	0.005371	-1.486328
47095		-15.288806	3.799771	-0.527694	0.657798	-1.753907	-2.345415	0.550293	0.013916	-1.497314
47096		-16.651022	4.903430	-2.729199	0.113308	-1.394481	-1.928544	0.532471	0.031006	-1.504150
47097		-17.141220	5.092884	-4.827771	-0.313784	-1.065077	-1.319534	0.516846	0.041992	-1.508545
47098		-14.665070	3.704589	-5.175862	-0.405378	-0.611403	-0.549696	0.507813	0.052734	-1.513184
47099		-12.406857	1.965595	-3.564737	-0.154539	0.098844	0.278759	0.518555	0.059326	-1.509033
47100		-13.279508	1.184632	-1.583805	0.129263	0.713612	0.896994	0.525391	0.046387	-1.502197
47101		-14.212873	0.246849	0.068523	0.288125	1.000443	1.138228	0.545654	0.026855	-1.499756
47102		-12.710600	-3.116489	0.919767	0.663160	1.229863	1.089673	0.561523	0.000977	-1.492676
47103		-11.489008	-1.546229	1.194608	1.234338	1.713518	1.039856	0.592773	-0.029297	-1.481445
47104		-10.689080	1.955231	3.034708	1.147903	2.169701	0.726774	0.624023	-0.052979	-1.468018
47105		1.507579	-3.781505	12.207267	1.064455	2.069135	0.384496	0.655273	-0.081055	-1.456543
47106		7.501298	-21.870742	18.919460	1.662470	2.510150	0.857509	0.691406	-0.126465	-1.427979
47107		7.678744	-4.263506	14.109111	2.711558	3.290540	1.987346	0.734375	-0.182617	-1.407471
47108		-8.886756	11.323022	7.799203	1.865523	3.688404	1.306802	0.783203	-0.217285	-1.376709
47109		-14.279315	5.966446	8.062823	1.015240	3.530937	0.847058	0.825195	-0.242920	-1.343994
47110		-15.387514	5.221697	11.150317	0.547324	3.081392	0.823336	0.858154	-0.253662	-1.307129
47111		-12.618029	3.644877	13.169751	-0.006506	2.741959	0.670968	0.902100	-0.268555	-1.285400
47112		-12.188557	1.366998	11.433472	-0.384010	2.525374	0.517460	0.928711	-0.281494	-1.265869
47113		-12.661353	-0.190401	9.499518	-0.622532	2.199038	0.240887	0.950195	-0.274902	-1.239990
47114		-9.262184	-2.565558	9.702512	-0.661764	1.946786	0.164114	0.972168	-0.281250	-1.218506
47115		-7.430193	-4.729410	9.304717	-0.506227	1.874273	0.298778	0.991943	-0.289795	-1.198975
47116		-6.996100	-3.916401	7.210392	-0.358021	1.766575	0.278527	1.018311	-0.298340	-1.179443
47117		-10.681703	-7.164047	6.979703	-0.121438	1.575371	0.330920	1.027100	-0.302490	-1.162354
47118		-6.757275	-2.569911	6.716384	0.261488	1.209646	0.354171	1.033936	-0.313477	-1.149170
47119		-6.908022	-1.283903	8.200482	0.270899	1.015374	0.351881	1.045410	-0.332764	-1.129639
47120		-6.120348	-1.734449	8.329748	0.269247	0.898709	0.334972	1.052246	-0.343506	-1.116455
47121		-6.602652	-1.193090	8.905576	0.253938	0.799653	0.301443	1.054932	-0.358643	-1.107666
47122		-6.694944	-0.443377	8.681524	0.190512	0.719225	0.307956	1.059570	-0.367432	-1.094727
47123		-6.890376	-0.939168	8.475697	0.110899	0.585209	0.263202	1.059814	-0.378174	-1.083740
47124		-7.196777	-1.339540	8.184382	0.067284	0.419081	0.251810	1.060059	-0.386719	-1.077148
47125		-6.799970	-2.147604	7.999697	0.074125	0.256751	0.224623	1.053711	-0.393311	-1.070801
47126		-6.390381	-2.209026	7.813686	0.116512	0.170645	0.194039	1.053955	-0.399902	-1.064209
47127		-5.384875	-2.708705	8.175388	0.138464	0.141366	0.164826	1.045654	-0.408447	-1.057617
47128		-6.031013	-2.469179	8.186954	0.158551	0.124836	0.166140	1.043701	-0.415039	-1.053223
47129		-6.636624	-1.774438	7.753327	0.187980	0.091100	0.164550	1.039551	-0.421387	-1.049072
47130		-6.951767	-0.927335	8.048756	0.158477	0.012892	0.093875	1.032959	-0.423584	-1.044678
47131		-6.902341	-0.483881	7.970983	0.136957	-0.068554	0.032392	1.018066	-0.434570	-1.040283
47132		-6.836661	-0.440453	8.013132	0.120697	-0.173667	-0.045161	1.011719	-0.441162	-1.046631
47133		-6.800878	-0.714118	7.996218	0.141156	-0.284918	-0.103870	1.011719	-0.434570	-1.038086
47134		-6.758890	-1.002422	7.896986	0.177201	-0.385284	-0.157304	1.003174	-0.441162	-1.038086
47135		-6.257804	-1.906288	7.811044	0.209380	-0.436777	-0.195339	0.983643	-0.443359	-1.044678
47136		-6.009635	-2.645682	7.787698	0.261753	-0.462419	-0.165816	0.979492	-0.447754	-1.048828
47137		-5.781458	-2.370212	7.858932	0.291845	-0.432874	-0.115682	0.968750	-0.454346	-1.042236
47138		-5.951846	-2.008635	7.899296	0.304176	-0.382369	-0.085472	0.958008	-0.454346	-1.053223
47139		-6.079372	-1.157679	8.166538	0.275617	-0.323852	-0.064185	0.949463	-0.465088	-1.050781
47140		-6.172133	-1.192682	8.248573	0.234374	-0.257522	-0.044870	0.934082	-0.458740	-1.051025
47141		-5.924886	-1.442388	8.453346	0.180444	-0.189271	-0.046615	0.932129	-0.467285	-1.050781
47142		-6.030710	-1.588416	8.318793	0.144719	-0.107509	-0.026563	0.928223	-0.476074	-1.052979
47143		-6.063295	-1.689195	8.054230	0.106741	-0.035559	-0.007323	0.925781	-0.471680	-1.050781
47144		-5.929734	-1.741584	7.899965	0.103427	0.004475	0.014836	0.917236	-0.478271	-1.052979
47145		-5.920404	-1.772509	7.906834	0.102297	0.030343	0.028830	0.911133	-0.484863	-1.044189
47146		-6.220741	-1.350202	7.847768	0.097587	0.052838	0.048845	0.904541	-0.487061	-1.046387
47147		-5.984807	-1.678398	7.901349	0.087810	0.076634	0.059513	0.895996	-0.487061	-1.044434
47148		-5.827688	-1.287815	8.054898	0.080593	0.094929	0.084787	0.898193	-0.489258	-1.044189
47149		-6.199343	-1.042609	8.003768	0.059745	0.127161	0.092201	0.896240	-0.497803	-1.041992
47150		-6.143729	-1.240157	8.067082	0.032143	0.152053	0.086662	0.889648	-0.497803	-1.044189
47151		-6.163656	-1.264951	7.951184	0.030542	0.160830	0.104453	0.887695	-0.504395	-1.044189
47152		-6.223969	-1.130049	7.881938	0.027846	0.180488	0.105381	0.889893	-0.506592	-1.043945
47153		-6.387051	-1.417016	7.836900	0.029889	0.186618	0.098088	0.885742	-0.508789	-1.037598
47154		-6.215744	-1.693614	7.938335	0.050770	0.191148	0.108561	0.879395	-0.517334	-1.041748
47155		-6.205895	-1.872481	7.879556	0.091592	0.208731	0.135368	0.881836	-0.521729	-1.043701
47156		-6.062840	-1.640150	8.021169	0.115186	0.237726	0.154754	0.875488	-0.530518	-1.037354
47157		-6.257436	-1.305547	8.218607	0.134950	0.275572	0.173655	0.871094	-0.532715	-1.041504
47158		-6.387690	-1.010473	8.236040	0.105766	0.344627	0.172732	0.880127	-0.536865	-1.039307
47159		-6.368338	-0.828300	8.321758	0.071798	0.383116	0.172717	0.880127	-0.539063	-1.034912
47160		-6.613334	-0.828562	8.253016	0.055999	0.444134	0.150974	0.880371	-0.547852	-1.032715
47161		-6.143422	-0.894202	8.565577	0.030521	0.492861	0.139890	0.882568	-0.552002	-1.032715
47162		-6.434439	-1.033286	8.526426	0.018999	0.569057	0.145832	0.882813	-0.556396	-1.028320
47163		-6.508114	-0.979536	8.512814	-0.006372	0.650804	0.149469	0.887207	-0.558594	-1.021729
47164		-6.813301	-1.081144	8.344156	-0.023536	0.744606	0.153563	0.895996	-0.564941	-1.021729
47165		-6.355253	-1.047763	8.388581	-0.037486	0.828163	0.152942	0.900391	-0.564941	-1.019531
47166		-6.614529	-0.663016	8.396989	-0.054462	0.909758	0.133697	0.904785	-0.569336	-1.006592
47167		-6.792312	-0.624971	8.332059	-0.087425	0.999401	0.107134	0.913574	-0.571289	-0.997803
47168		-6.297835	-0.858587	8.678543	-0.137309	1.080129	0.087702	0.920410	-0.575684	-0.993408
47169		-6.838877	-0.772943	8.541071	-0.170778	1.183443	0.089713	0.935547	-0.573486	-0.982666
47170		-6.703737	-1.011219	8.272236	-0.206313	1.312750	0.092946	0.952881	-0.573486	-0.974121
47171		-6.935300	-0.915013	8.025656	-0.233109	1.438026	0.104475	0.959473	-0.575439	-0.963379
47172		-6.899189	-0.945242	7.873801	-0.235880	1.556382	0.093605	0.979248	-0.579834	-0.950439
47173		-6.847574	-1.153346	7.761501	-0.233586	1.672203	0.085404	0.994385	-0.577393	-0.935303
47174		-7.163250	-1.542992	7.456331	-0.215793	1.781401	0.117324	1.007324	-0.579590	-0.922363
47175		-6.516888	-2.216031	7.587587	-0.202749	1.905882	0.167803	1.020508	-0.579590	-0.900879
47176		-7.041541	-2.784350	7.684934	-0.159597	2.051350	0.280786	1.038086	-0.588135	-0.887939
47177		-6.514626	-2.786267	7.138456	-0.137753	2.238171	0.433057	1.053711	-0.600830	-0.861816
47178		-4.315431	-2.455391	8.378813	-0.146927	2.465318	0.644860	1.073486	-0.607422	-0.835938
47179		-10.248936	-3.409351	7.784556	-0.087207	2.620768	0.679732	1.088867	-0.611572	-0.812500
47180		-8.028614	-2.736686	8.036832	-0.006280	2.693363	0.792070	1.111084	-0.624512	-0.780029
47181		-3.191603	-3.007308	9.900596	-0.021679	3.090074	0.991742	1.130859	-0.637207	-0.745361
47182		-6.699263	-3.540854	8.819706	-0.015448	3.531491	1.213244	1.148682	-0.650146	-0.702393
47183		-7.359479	-2.979502	9.835461	-0.005376	3.840342	1.370086	1.162598	-0.671631	-0.648438
47184		-5.741781	-3.894920	9.717207	0.085665	4.253009	1.623571	1.185059	-0.695313	-0.607422
47185		-6.151847	-3.796501	9.728838	0.224056	4.722573	1.893529	1.194336	-0.714600	-0.542725
47186		-12.389393	-2.302218	8.741133	0.432370	5.047154	2.107746	1.210693	-0.749023	-0.478027
47187		-16.692349	-1.031244	8.915869	0.485907	5.091964	2.094298	1.213623	-0.774902	-0.406982
47188		-16.617051	-3.908789	9.896686	0.574308	5.046737	2.078533	1.221191	-0.802734	-0.337891
47189		-12.176711	-3.509862	11.983474	0.331808	5.174587	2.139156	1.217773	-0.835205	-0.271240
47190		-11.612241	-5.209505	11.576654	-0.031664	5.406787	2.305054	1.218506	-0.856689	-0.206787
47191		-13.724281	-5.705995	11.269552	-0.020891	5.485093	2.434992	1.213135	-0.886963	-0.129150
47192		-14.136183	-3.549617	10.947311	-0.150355	5.451176	2.566730	1.192383	-0.916992	-0.068848
47193		-15.284940	-2.446661	10.479115	-0.555533	5.223109	2.572491	1.171387	-0.938721	-0.010986
47194		-14.523436	-3.049681	8.794184	-1.073835	4.730528	2.470773	1.154785	-0.960205	0.038574
47195		-11.659273	-3.426411	7.292956	-1.256102	4.122578	2.466769	1.131836	-0.990723	0.073242
47196		-12.140856	-1.277083	8.516923	-1.271034	3.215373	2.513000	1.100098	-1.018799	0.092773
47197		-17.143495	-1.056767	10.882650	-1.614523	1.665788	2.173070	1.087646	-1.038574	0.082275
47198		-16.273420	-6.794112	10.131878	-1.578066	-0.036214	1.720126	1.072754	-1.053711	0.071777
47199		-8.821895	-6.220908	9.481068	-1.091000	-1.402857	1.260854	1.070557	-1.055908	0.048340
47200		-3.697148	-4.389558	7.970957	-0.706425	-1.937955	0.805036	1.062012	-1.060303	0.018311
47201		-0.915263	-3.076721	7.187727	-0.590874	-2.084145	0.337167	1.062012	-1.060547	-0.005127
47202		0.898316	-2.604310	6.607467	-0.585234	-2.007500	-0.095261	1.072510	-1.051758	-0.028809
47203		0.675310	-2.021270	6.606124	-0.679956	-1.840854	-0.467881	1.078857	-1.041016	-0.054688
47204		-1.310152	-1.352743	6.151904	-0.822465	-1.888040	-0.828108	1.086914	-1.023682	-0.091309
47205		-2.837845	-1.734645	5.787623	-0.864240	-2.268540	-1.150592	1.099609	-1.015137	-0.121094
47206		-3.561826	-1.518496	5.871318	-0.842882	-2.793613	-1.362873	1.114258	-0.995605	-0.155762
47207		-3.233422	-0.488822	5.713809	-0.895067	-3.261032	-1.540014	1.119873	-0.971924	-0.200928
47208		-2.521633	-0.113293	5.574786	-1.057411	-3.572969	-1.675459	1.127930	-0.950439	-0.259033
47209		-2.687250	-0.251439	5.368944	-1.221741	-3.660809	-1.752398	1.133545	-0.920166	-0.306641
47210		-3.870349	-0.042859	5.192757	-1.262438	-3.790163	-1.786705	1.137207	-0.898682	-0.360352
47211		-4.782451	0.654058	5.218381	-1.263403	-3.969537	-1.867659	1.142334	-0.861816	-0.414307
47212		-4.926594	1.012733	5.220523	-1.228820	-4.152716	-1.977269	1.143555	-0.827393	-0.468506
47213		-4.745694	1.250106	5.493671	-1.205324	-4.224982	-2.066151	1.144531	-0.794922	-0.520264
47214		-5.004874	1.423046	5.986022	-1.225299	-4.151835	-2.106647	1.139160	-0.762451	-0.572266
47215		-6.490877	1.742275	6.616390	-1.326618	-4.021738	-2.091132	1.138184	-0.730225	-0.626221
47216		-9.258854	1.605106	6.465297	-1.438475	-4.068260	-2.108699	1.126465	-0.702148	-0.671631
47217		-10.623155	0.250952	6.187327	-1.376301	-4.330288	-2.125462	1.121094	-0.665527	-0.732178
47218		-10.332757	-0.442749	6.465042	-1.151263	-4.535566	-2.089536	1.106934	-0.633057	-0.777588
47219		-10.245406	0.027234	6.644365	-0.959385	-4.568340	-2.085223	1.093018	-0.603027	-0.838135
47220		-10.369335	-0.070005	6.904436	-0.893356	-4.483217	-2.166124	1.076416	-0.563965	-0.888184
47221		-10.909225	-0.761222	7.012399	-0.809214	-4.361491	-2.296078	1.064697	-0.533936	-0.937744
47222		-11.246874	-1.440308	7.451125	-0.611487	-4.309409	-2.460936	1.050537	-0.497314	-0.985596
47223		-11.737944	-1.103816	8.536195	-0.383401	-4.198473	-2.609183	1.031982	-0.462646	-1.031250
47224		-13.710630	-0.683113	8.887840	-0.310883	-4.131182	-2.719647	1.011230	-0.421631	-1.076904
47225		-14.678167	-1.308043	9.089469	-0.230022	-4.140296	-2.696265	0.984131	-0.391602	-1.120361
47226		-14.843568	-0.997486	9.641569	-0.196429	-4.101755	-2.585162	0.963379	-0.354736	-1.166016
47227		-15.194329	-0.291687	10.193448	-0.287442	-4.018368	-2.481676	0.936279	-0.315918	-1.213867
47228		-16.122545	-0.041235	10.464371	-0.482356	-3.905342	-2.395252	0.898193	-0.281494	-1.253174
47229		-17.301859	-1.045769	9.910451	-0.604918	-3.901561	-2.275957	0.862061	-0.238281	-1.296875
47230		-17.305128	-1.903278	9.194604	-0.567452	-3.964491	-2.082221	0.819824	-0.208252	-1.338135
47231		-16.146140	-1.766055	8.540320	-0.486100	-3.913341	-1.901664	0.773193	-0.169434	-1.371094
47232		-14.459546	-1.938072	7.806909	-0.413167	-3.641501	-1.794217	0.730957	-0.137207	-1.401855
47233		-13.704634	0.191459	7.151230	-0.381213	-3.218829	-1.697204	0.688721	-0.109131	-1.423828
47234		-13.773288	2.634276	7.213016	-0.516364	-2.854951	-1.880468	0.659424	-0.074707	-1.450439
47235		-14.050039	2.700510	6.510250	-0.523197	-2.554399	-2.232361	0.623779	-0.048828	-1.470215
47236		-13.776398	-0.225560	4.681517	-0.053042	-2.371643	-2.347018	0.592773	-0.024902	-1.479248
47237		-13.686911	-0.320467	2.751202	0.684343	-2.179600	-2.193627	0.562256	-0.018555	-1.494629
47238		-12.755447	3.435743	1.096789	0.968636	-1.825772	-1.889790	0.533691	-0.014404	-1.505371
47239		-12.650066	5.614656	-0.444007	0.615353	-1.389734	-1.587618	0.518311	-0.010254	-1.511963
47240		-14.030526	5.272486	-2.176109	0.098366	-0.950363	-1.146481	0.509521	0.000732	-1.516602
47241		-14.310238	2.954058	-3.475299	-0.170116	-0.513825	-0.701735	0.502930	-0.001465	-1.518799
47242		-12.838538	0.183322	-4.222094	0.135660	0.139242	-0.185438	0.516113	-0.005859	-1.514160
47243		-12.809799	-0.254275	-3.265867	0.606709	0.862244	0.219498	0.525146	-0.018799	-1.513916
47244		-13.516835	-2.421812	-2.913342	1.015138	1.506530	0.402220	0.547607	-0.042480	-1.500732
47245		-14.280896	-3.671974	-2.807015	1.396852	2.097661	0.428154	0.585449	-0.070557	-1.487061
47246		-2.583964	-7.837191	3.224420	1.964248	2.803533	0.553718	0.625732	-0.111572	-1.460449
47247		-1.926933	-11.827853	15.835408	2.232371	3.342926	0.811585	0.681396	-0.159180	-1.429443
47248		-1.986906	-0.969475	16.394333	2.515247	3.676343	0.620345	0.732666	-0.202148	-1.405029
47249		-6.319952	9.121891	10.993939	1.869978	3.763483	0.144038	0.779053	-0.223633	-1.376465
47250		-12.401282	8.160384	9.917653	1.144762	3.691409	0.329621	0.827637	-0.249512	-1.343750
47251		-14.579169	10.572979	11.341787	0.381711	3.218143	0.770572	0.864990	-0.262207	-1.311279
47252		-13.405242	8.402557	13.218833	-0.493344	2.696002	0.950709	0.895752	-0.270752	-1.289551
47253		-11.450758	1.680894	11.343117	-1.087001	2.415060	0.728390	0.928223	-0.268555	-1.272461
47254		-9.609089	-4.577424	8.822002	-1.120571	2.238647	0.407778	0.949951	-0.268311	-1.252930
47255		-10.956075	-7.610380	7.415962	-0.762438	2.027312	0.283843	0.976074	-0.272461	-1.233643
47256		-8.845288	-6.369188	7.790471	-0.422433	1.790257	0.239656	0.995850	-0.274658	-1.216309
47257		-10.429653	-7.089645	8.861982	-0.027556	1.547710	0.319235	1.009277	-0.287598	-1.190430
47258		-7.172087	-1.603007	7.696288	0.227144	1.202411	0.219012	1.024658	-0.298340	-1.177246
47259		-7.071407	-1.187704	8.112929	0.120425	1.038042	0.132590	1.029541	-0.313477	-1.164063
47260		-5.788039	-2.495988	8.364911	0.129732	0.902884	0.124091	1.036377	-0.322021	-1.144775
47261		-6.141766	-0.906322	8.304770	0.125437	0.831266	0.094512	1.042969	-0.324219	-1.131836
47262		-6.916553	-0.313347	8.641927	-0.001228	0.716499	0.045899	1.047607	-0.334961	-1.120850
47263		-6.836088	-0.078655	8.769093	-0.101812	0.576761	-0.015254	1.050049	-0.339355	-1.112305
47264		-6.707377	-1.017458	8.737157	-0.181842	0.470989	-0.050097	1.058594	-0.339111	-1.105957
47265		-6.878153	-2.119759	8.126301	-0.185598	0.360884	-0.053018	1.052246	-0.341309	-1.093018
47266		-6.563927	-2.973274	7.645640	-0.129881	0.235784	-0.038520	1.048096	-0.345703	-1.084473
47267		-5.709510	-3.370694	7.778907	-0.067343	0.167921	-0.018197	1.048096	-0.350098	-1.080078
47268		-5.709879	-3.131551	7.910382	0.009174	0.125769	0.029675	1.039551	-0.356445	-1.082031
47269		-6.458205	-1.675769	7.782096	0.044154	0.062603	0.048348	1.039795	-0.360840	-1.082031
47270		-6.539337	-1.276440	8.215040	0.020091	-0.000393	0.000533	1.031250	-0.363037	-1.069336
47271		-6.354950	-1.689210	8.405755	-0.001773	-0.056521	-0.026094	1.027100	-0.371826	-1.069092
47272		-6.349607	-1.807998	8.288214	0.028624	-0.120604	-0.027602	1.018311	-0.369629	-1.075684
47273		-6.314574	-1.937516	7.985441	0.080232	-0.185956	-0.029319	1.007568	-0.371826	-1.071289
47274		-5.873401	-2.566059	7.652894	0.126837	-0.202750	0.015568	1.007813	-0.378174	-1.066895
47275		-5.370229	-3.006460	7.586260	0.204614	-0.214365	0.041682	0.992920	-0.389160	-1.075439
47276		-6.143579	-2.585026	7.105241	0.285466	-0.257982	0.048912	0.982178	-0.393555	-1.069092
47277		-5.898522	-2.432500	7.510921	0.337576	-0.318598	0.044367	0.978027	-0.402344	-1.066650
47278		-6.217728	-2.232085	7.725716	0.373937	-0.341156	0.042217	0.967285	-0.404541	-1.068848
47279		-5.920551	-1.728888	8.271917	0.353949	-0.300054	0.050288	0.952393	-0.413086	-1.068848
47280		-5.994809	-1.789709	8.146942	0.306445	-0.224333	0.059826	0.943848	-0.419678	-1.066650
47281		-6.106281	-1.457206	7.830064	0.266384	-0.180498	0.086638	0.935303	-0.426270	-1.064453
47282		-5.978367	-1.598670	7.900167	0.208524	-0.144663	0.085677	0.931152	-0.432617	-1.066406
47283		-5.974840	-1.762003	8.098437	0.191443	-0.125025	0.101423	0.922607	-0.435059	-1.070801
47284		-5.912701	-2.027487	8.049397	0.197396	-0.091325	0.121126	0.911865	-0.443604	-1.077148
47285		-5.645192	-2.268426	8.033970	0.210096	-0.038891	0.153645	0.916504	-0.450195	-1.068359
47286		-5.576119	-2.166164	8.445897	0.199721	0.016509	0.165385	0.907959	-0.456543	-1.066162
47287		-6.091189	-1.570387	8.173749	0.194877	0.070821	0.199469	0.903809	-0.463135	-1.066162
47288		-5.795088	-1.718353	8.297774	0.176377	0.099528	0.176464	0.897705	-0.471924	-1.065918
47289		-6.033482	-1.149303	8.412942	0.171745	0.134722	0.182732	0.893555	-0.478271	-1.061523
47290		-5.963213	-1.642228	8.338639	0.167070	0.187670	0.176555	0.884766	-0.478516	-1.061523
47291		-6.317184	-1.741995	8.232229	0.166880	0.219023	0.177554	0.889404	-0.487061	-1.059326
47292		-6.076812	-1.731480	8.219749	0.170038	0.244332	0.181387	0.882813	-0.489258	-1.063721
47293		-6.066965	-1.826863	8.225628	0.176527	0.263592	0.188077	0.883301	-0.500000	-1.059082
47294		-6.070050	-1.713880	8.050189	0.210588	0.301587	0.205473	0.883301	-0.502197	-1.050537
47295		-6.064515	-0.750151	8.182950	0.196947	0.325112	0.206504	0.883545	-0.508789	-1.052490
47296		-6.210460	-0.539594	8.222988	0.137400	0.372842	0.186347	0.877441	-0.523926	-1.052246
47297		-6.324735	-0.984647	8.197893	0.092308	0.428216	0.159017	0.886230	-0.526123	-1.050049
47298		-6.667784	-0.844478	8.162133	0.067259	0.461640	0.152399	0.877686	-0.528320	-1.045898
47299		-6.427972	-0.945020	8.060028	0.040350	0.498658	0.135598	0.879883	-0.530518	-1.043701
47300		-6.244868	-0.942832	8.239904	0.015423	0.519827	0.124643	0.882324	-0.541260	-1.037109
47301		-6.669499	-1.017455	7.953774	-0.011684	0.551407	0.127062	0.884521	-0.539063	-1.037109
47302		-6.651967	-1.032591	7.864540	-0.043070	0.589928	0.129716	0.893311	-0.545654	-1.036865
47303		-6.437374	-1.145154	8.044242	-0.080473	0.626730	0.115669	0.897705	-0.547607	-1.034668
47304		-6.340795	-1.328342	8.084169	-0.104434	0.680470	0.120909	0.897705	-0.549805	-1.028320
47305		-6.772906	-1.411367	7.848279	-0.116209	0.740259	0.130841	0.906494	-0.549805	-1.023926
47306		-6.620086	-1.017715	7.978776	-0.126962	0.787772	0.126975	0.910889	-0.549805	-1.021729
47307		-6.679983	-1.258937	7.891427	-0.125866	0.842988	0.123568	0.917480	-0.556152	-1.019531
47308		-6.697332	-1.265104	7.905490	-0.128271	0.907217	0.097997	0.919922	-0.562744	-1.008789
47309		-6.911785	-1.073646	7.882990	-0.112855	0.984051	0.087426	0.935059	-0.560547	-1.006592
47310		-6.736224	-1.327485	8.040787	-0.110115	1.077082	0.081050	0.946045	-0.562500	-0.995850
47311		-7.084314	-1.441659	8.001882	-0.114833	1.177881	0.119444	0.956787	-0.562500	-0.984863
47312		-6.896148	-1.774889	8.058243	-0.126695	1.278453	0.151526	0.965820	-0.569092	-0.974121
47313		-6.445032	-2.274012	8.299689	-0.122415	1.394550	0.208932	0.983398	-0.575439	-0.963135
47314		-7.287838	-2.203733	8.127005	-0.112427	1.555386	0.311345	0.996582	-0.579590	-0.954590
47315		-5.885915	-2.319088	8.113108	-0.126928	1.767543	0.413522	1.016113	-0.581787	-0.937256
47316		-4.744336	-2.111187	9.531877	-0.160700	2.045923	0.541071	1.025146	-0.588135	-0.915771
47317		-9.915874	-2.494005	8.826811	-0.123523	2.214223	0.585040	1.040527	-0.596680	-0.894043
47318		-5.479930	-1.623509	9.892522	-0.147334	2.446074	0.698010	1.064697	-0.605225	-0.870361
47319		-5.062879	-2.546497	10.009007	-0.170949	2.869263	0.847798	1.080322	-0.615967	-0.844482
47320		-6.207557	-1.853645	9.661568	-0.170543	3.222007	0.902822	1.108887	-0.624512	-0.805664
47321		-6.910780	-1.501905	10.082693	-0.171574	3.532388	0.908984	1.126709	-0.637207	-0.764648
47322		-4.606788	-1.119700	10.157597	-0.108988	3.954452	1.023308	1.153076	-0.647949	-0.715088
47323		-5.781781	-1.897562	9.990946	-0.044926	4.448941	1.099470	1.179688	-0.660645	-0.650635
47324		-6.212214	-2.005350	9.733871	0.037348	4.894147	1.263967	1.199707	-0.677734	-0.603271
47325		-9.622396	-1.655673	9.217153	0.110489	5.294348	1.404617	1.224365	-0.697021	-0.530029
47326		-17.209015	-3.478002	9.337937	0.208978	5.407447	1.346536	1.249023	-0.722900	-0.458984
47327		-15.011223	-5.011904	10.460071	0.106720	5.636145	1.588673	1.260254	-0.733398	-0.383789
47328		-12.841176	-4.790378	10.453216	-0.278371	5.718778	1.677644	1.265381	-0.754883	-0.312988
47329		-12.492041	-6.627699	10.450262	-0.680650	5.697373	1.922816	1.274902	-0.776367	-0.241943
47330		-14.604367	-5.783028	10.497372	-0.896933	5.630463	2.099927	1.266602	-0.793457	-0.175293
47331		-14.229709	-3.418802	9.191875	-1.352148	5.450647	2.059862	1.263184	-0.817383	-0.125732
47332		-15.838351	-2.804761	8.755728	-2.033608	5.087293	2.009540	1.253174	-0.843262	-0.078369
47333		-13.505670	-4.003862	7.214515	-2.551878	4.492582	2.007710	1.240723	-0.860596	-0.043945
47334		-10.315321	-2.597958	6.161840	-2.689696	3.800571	2.185592	1.226318	-0.888672	-0.020020
47335		-15.282578	-3.503802	9.405558	-2.802074	2.510885	2.432266	1.205322	-0.910400	-0.013428
47336		-14.287526	-6.636088	10.640618	-2.576186	1.034122	2.428469	1.188477	-0.934326	-0.030273
47337		-11.641199	-9.064480	9.242893	-1.857936	-0.178758	2.220158	1.169434	-0.951904	-0.047119
47338		-6.733815	-5.722183	8.681551	-1.120507	-1.138997	1.725715	1.158936	-0.960693	-0.062012
47339		-2.829949	-2.685238	7.648927	-0.945679	-1.521630	1.084002	1.146240	-0.971436	-0.089600
47340		-1.081987	-1.738137	6.917398	-1.092868	-1.671699	0.423550	1.143799	-0.967285	-0.111084
47341		-0.085879	-2.061575	6.234423	-1.262287	-1.706297	-0.083767	1.145752	-0.958740	-0.147705
47342		-0.350512	-1.940920	6.023764	-1.333163	-1.727976	-0.420694	1.151855	-0.947998	-0.184082
47343		-1.492053	-1.611984	5.726934	-1.374236	-1.880383	-0.651224	1.151367	-0.935059	-0.214355
47344		-2.743764	-1.512509	5.511292	-1.376505	-2.197831	-0.824259	1.157471	-0.919922	-0.252930
47345		-2.933795	-1.305076	5.598940	-1.309204	-2.567713	-0.997230	1.161133	-0.900391	-0.287598
47346		-3.145179	-0.825673	5.660625	-1.213984	-2.892223	-1.202844	1.158203	-0.881104	-0.334961
47347		-3.397217	-0.503382	5.476250	-1.134885	-3.108430	-1.472464	1.164063	-0.853027	-0.378174
47348		-3.916775	-0.701419	5.215648	-1.024838	-3.211070	-1.766702	1.169678	-0.827148	-0.419189
47349		-4.369218	-1.249840	4.894696	-0.823999	-3.262173	-2.009296	1.173096	-0.796875	-0.466553
47350		-4.710243	-1.413797	4.800840	-0.532255	-3.273652	-2.197823	1.167725	-0.764404	-0.503662
47351		-5.277702	-0.922294	4.966732	-0.276464	-3.268778	-2.325216	1.168945	-0.736328	-0.536133
47352		-6.204279	-0.266005	5.154746	-0.123606	-3.319387	-2.444388	1.170166	-0.703857	-0.570801
47353		-6.795221	-0.025576	5.594600	-0.088557	-3.400251	-2.510880	1.173584	-0.673584	-0.609863
47354		-7.260603	-0.082813	5.807065	-0.137191	-3.495569	-2.531095	1.172363	-0.638916	-0.651123
47355		-7.606523	-0.719965	6.012165	-0.186591	-3.567885	-2.494507	1.167236	-0.613037	-0.681396
47356		-8.122325	-1.284524	6.550199	-0.166261	-3.700253	-2.431684	1.157471	-0.578613	-0.716309
47357		-8.869116	-0.628498	7.220496	-0.145263	-3.873658	-2.362204	1.147949	-0.552734	-0.759521
47358		-10.036667	0.539871	7.546243	-0.279791	-4.190736	-2.334255	1.129639	-0.518066	-0.807373
47359		-10.378435	0.690149	7.551949	-0.575602	-4.495221	-2.259987	1.117676	-0.485840	-0.857178
47360		-10.316098	0.135085	7.552007	-0.833613	-4.627264	-2.143759	1.088379	-0.453613	-0.915527
47361		-10.365380	-0.833255	7.590730	-0.906138	-4.596268	-2.002169	1.068115	-0.427734	-0.956787
47362		-11.083140	-1.356255	8.158778	-0.786210	-4.453571	-1.898268	1.038818	-0.395264	-1.010986
47363		-13.006185	-0.865853	8.476905	-0.600637	-4.392151	-1.886153	1.018311	-0.365234	-1.056396
47364		-14.103875	-0.961206	8.700104	-0.459914	-4.424700	-1.928033	0.984863	-0.339355	-1.104004
47365		-14.444092	-1.545233	8.546341	-0.310508	-4.392857	-1.952814	0.955811	-0.315674	-1.147461
47366		-14.226355	-2.078756	8.441907	-0.090522	-4.277153	-1.973288	0.920166	-0.290039	-1.186523
47367		-13.950889	-2.224822	8.566544	0.146136	-4.084191	-2.002393	0.886963	-0.268555	-1.225586
47368		-13.943969	-1.709280	8.714566	0.325355	-3.838942	-2.079507	0.851563	-0.244873	-1.262451
47369		-14.071544	-1.265548	8.754345	0.427789	-3.616526	-2.214233	0.824463	-0.216797	-1.295166
47370		-14.110393	-1.521847	8.473491	0.565407	-3.425284	-2.341172	0.793701	-0.204102	-1.325439
47371		-13.852518	-1.390181	8.415344	0.782484	-3.224930	-2.386737	0.758301	-0.184570	-1.345215
47372		-14.191755	-0.597858	8.482967	0.861182	-2.880841	-2.351784	0.734131	-0.169678	-1.371338
47373		-15.495269	0.089239	7.306058	0.816152	-2.647540	-2.323927	0.711914	-0.156738	-1.390869
47374		-15.611840	-0.521423	5.954046	0.741463	-2.640540	-2.282425	0.681152	-0.143799	-1.406250
47375		-14.334121	-1.148155	4.605360	0.757362	-2.589567	-2.147503	0.652588	-0.133057	-1.423584
47376		-12.704231	-0.865002	3.206275	0.783610	-2.382812	-1.968714	0.624023	-0.124512	-1.441162
47377		-11.240206	-0.117552	2.040166	0.779473	-2.030891	-1.790066	0.597900	-0.122559	-1.456299
47378		-11.282992	0.885808	0.862943	0.692136	-1.579304	-1.646273	0.580078	-0.111816	-1.467285
47379		-12.732162	0.169058	-0.694522	0.639983	-1.170828	-1.472211	0.567139	-0.111816	-1.467285
47380		-13.306148	0.385326	-1.818355	0.677502	-0.779323	-1.248963	0.564941	-0.114014	-1.475830
47381		-13.938051	0.824357	-2.803710	0.679987	-0.352381	-1.041304	0.564941	-0.114014	-1.471436
47382		-14.644405	0.752559	-3.471608	0.674801	0.086282	-0.834721	0.562988	-0.118408	-1.477783
47383		-14.816414	0.572689	-3.621289	0.725269	0.562189	-0.642565	0.576416	-0.133545	-1.466797
47384		-14.421008	-1.877953	-3.848324	0.955014	1.244396	-0.415936	0.594238	-0.148682	-1.458008
47385		-16.190807	-0.817034	-4.588752	1.292386	1.942652	-0.086643	0.627441	-0.167969	-1.436035
47386		-12.171919	-0.192682	-2.006095	1.329888	2.471380	-0.116514	0.665527	-0.204590	-1.413818
47387		7.436523	-11.853098	19.104917	1.474568	3.029642	0.393199	0.711914	-0.232666	-1.389648
47388		14.428768	-10.478669	23.394371	2.292241	4.152963	0.811545	0.763184	-0.275635	-1.345947
47389		-6.351362	11.407161	10.208003	1.960142	4.493789	0.334318	0.824951	-0.301514	-1.306641
47390		-18.831539	8.992507	7.026876	0.999877	4.196684	-0.028227	0.881836	-0.318604	-1.265381
47391		-19.770697	11.055973	9.883497	0.367713	3.571485	0.546347	0.910645	-0.333496	-1.232910
47392		-14.930217	8.427948	13.767679	-0.575366	2.929311	0.709881	0.945801	-0.342041	-1.198242
47393		-9.162271	2.090823	12.247162	-1.091360	2.739446	0.593497	0.982666	-0.341797	-1.168213
47394		-11.998472	-4.576156	8.498624	-1.168542	2.601183	0.370701	1.001953	-0.335205	-1.148926
47395		-16.247147	-8.529240	7.856555	-0.818777	2.176488	0.359178	1.032715	-0.341553	-1.125244
47396		-11.295863	-7.360072	7.845275	-0.126498	1.532851	0.330242	1.034912	-0.341553	-1.105957
47397		-8.052032	-1.977713	8.716438	0.096271	1.078581	0.380297	1.039795	-0.360840	-1.092773
47398		-6.216479	-3.378040	7.677032	0.117445	0.824160	0.334170	1.044189	-0.365234	-1.082031
47399		-5.987931	-3.590149	7.139651	0.252223	0.678494	0.368261	1.046875	-0.380371	-1.079590
47400		-5.673020	-2.244146	8.173504	0.339742	0.554658	0.414039	1.047363	-0.395508	-1.060059
47401		-6.813316	-0.438106	8.339100	0.338205	0.424954	0.421460	1.043213	-0.402100	-1.062012
47402		-7.418758	0.682187	8.632374	0.257416	0.265907	0.332460	1.034912	-0.417236	-1.049072
47403		-6.332902	-0.309696	9.160680	0.134733	0.189893	0.246005	1.032959	-0.423584	-1.044678
47404		-6.601544	-0.697041	9.276740	0.052115	0.162714	0.163891	1.028809	-0.425781	-1.036133
47405		-6.461516	-1.512825	8.391567	0.004626	0.133539	0.087609	1.026855	-0.432373	-1.035889
47406		-6.175584	-2.162432	7.929729	0.029416	0.082604	0.121461	1.018311	-0.438965	-1.029541
47407		-5.646000	-3.123666	7.657138	0.094312	0.019902	0.163560	1.014160	-0.445313	-1.027344
47408		-5.892397	-2.386265	7.477945	0.180297	-0.030960	0.185269	1.005615	-0.449707	-1.027344
47409		-6.109536	-2.217007	7.916316	0.215734	-0.084812	0.150240	0.997070	-0.458496	-1.025146
47410		-6.260173	-1.646280	8.068122	0.264675	-0.124109	0.107438	0.990723	-0.464844	-1.020752
47411		-6.403618	-0.620222	8.196350	0.289212	-0.222514	0.021421	0.979980	-0.467285	-1.027100
47412		-6.578516	-0.421867	8.002047	0.324889	-0.350995	-0.042957	0.975830	-0.473633	-1.024902
47413		-6.317977	-0.782050	8.183446	0.362147	-0.448747	-0.080793	0.967285	-0.475830	-1.027100
47414		-5.997726	-0.834292	8.171474	0.378576	-0.477395	-0.117124	0.956543	-0.484619	-1.031250
47415		-5.943205	-1.477721	7.956171	0.366162	-0.448932	-0.149826	0.950195	-0.484619	-1.029053
47416		-5.896113	-1.802927	8.117788	0.357898	-0.405944	-0.146584	0.935303	-0.493408	-1.033203
47417		-5.812574	-1.745217	8.100826	0.356543	-0.337282	-0.112369	0.930908	-0.495605	-1.029053
47418		-5.402428	-1.575347	8.146954	0.328645	-0.244674	-0.078999	0.917969	-0.501953	-1.024658
47419		-5.184946	-1.538198	8.317469	0.317676	-0.172933	-0.042359	0.916016	-0.506348	-1.031006
47420		-5.637014	-1.005662	8.189350	0.291436	-0.097245	-0.002617	0.914063	-0.512939	-1.031006
47421		-5.911669	-0.452570	8.275204	0.236708	-0.033926	0.003268	0.905518	-0.517334	-1.024414
47422		-5.940124	-0.727703	8.432472	0.171952	0.021243	-0.014532	0.901123	-0.517334	-1.028809
47423		-6.119085	-0.652286	8.559172	0.126229	0.067919	-0.017478	0.899170	-0.523682	-1.024414
47424		-6.058619	-1.169801	8.300253	0.102911	0.101259	-0.016395	0.901367	-0.525879	-1.026611
47425		-6.092650	-1.283337	8.251130	0.106944	0.115621	-0.011902	0.886230	-0.528076	-1.020264
47426		-5.824763	-1.248788	8.040762	0.120707	0.144031	0.001244	0.890625	-0.530273	-1.022217
47427		-5.745687	-0.356379	8.115664	0.087955	0.156458	0.004149	0.886475	-0.534668	-1.026367
47428		-6.024214	-0.422459	8.211555	0.044012	0.175902	-0.003143	0.884277	-0.532471	-1.024414
47429		-6.000215	-1.102777	8.249585	0.018704	0.195682	0.002845	0.884277	-0.536865	-1.017822
47430		-5.716019	-1.540792	8.284541	0.027109	0.201238	0.039828	0.882324	-0.543457	-1.017822
47431		-5.729599	-1.686569	8.187089	0.039908	0.225218	0.070906	0.878174	-0.545410	-1.013428
47432		-6.036564	-1.421798	8.155073	0.043296	0.240800	0.089456	0.878174	-0.549805	-1.017578
47433		-5.985084	-0.874170	8.102895	0.045830	0.263948	0.109272	0.871826	-0.556396	-1.013428
47434		-5.956982	-0.867475	8.353021	0.028864	0.274208	0.108127	0.876465	-0.562988	-1.010986
47435		-6.264223	-0.963964	8.365996	0.005758	0.290221	0.124517	0.878662	-0.564941	-1.006836
47436		-6.181478	-1.027678	8.350589	0.009186	0.317216	0.145103	0.878662	-0.567139	-1.010986
47437		-6.058859	-1.214249	8.327013	0.019170	0.353384	0.155828	0.874268	-0.564941	-1.006836
47438		-6.297559	-1.249060	8.146347	0.062474	0.393019	0.157892	0.874756	-0.578125	-1.000244
47439		-6.483420	-0.923770	8.143329	0.137630	0.450072	0.149602	0.879395	-0.584473	-0.993652
47440		-6.273819	-0.105760	8.630508	0.126824	0.494234	0.129366	0.881592	-0.588867	-1.000000
47441		-6.018407	-1.154858	8.750861	0.035456	0.569375	0.136447	0.885986	-0.591064	-0.991211
47442		-6.421391	-1.255668	8.827260	0.022759	0.671067	0.170939	0.884277	-0.601807	-0.989014
47443		-6.371876	-0.968683	8.866168	-0.002662	0.771321	0.185572	0.890869	-0.606201	-0.978271
47444		-6.699174	-0.803772	8.601413	-0.005776	0.872665	0.193453	0.899658	-0.608154	-0.976074
47445		-6.706400	-0.341857	8.531576	-0.020511	0.969325	0.190443	0.904053	-0.610352	-0.969482
47446		-6.723156	-0.111730	8.692144	-0.061144	1.049072	0.179469	0.915039	-0.612549	-0.958740
47447		-6.705797	-0.516743	8.534449	-0.102882	1.146430	0.157837	0.926025	-0.618896	-0.956299
47448		-6.756453	-0.588009	8.538400	-0.148229	1.228203	0.162952	0.934814	-0.621094	-0.945557
47449		-6.840464	-1.222594	8.518566	-0.173277	1.336336	0.174479	0.941406	-0.623291	-0.930664
47450		-6.529300	-1.545367	8.580623	-0.187337	1.458100	0.213617	0.956787	-0.627441	-0.926025
47451		-6.093812	-1.754775	8.363614	-0.205106	1.615636	0.296971	0.965576	-0.629639	-0.906738
47452		-4.698473	-1.718519	8.812746	-0.214297	1.816362	0.423464	0.987305	-0.635986	-0.893799
47453		-8.977221	-3.016059	9.105675	-0.114501	1.930990	0.429390	0.994141	-0.644531	-0.872314
47454		-7.050570	-2.749480	8.845147	-0.040180	2.067085	0.563274	1.003174	-0.655273	-0.850586
47455		-3.826087	-3.322830	10.047100	-0.027029	2.415493	0.785181	1.025146	-0.661621	-0.828857
47456		-6.939698	-2.823661	9.220404	0.033697	2.821044	0.974108	1.045166	-0.676758	-0.798584
47457		-6.477908	-2.121928	10.334806	0.022576	3.063112	1.063343	1.062988	-0.685303	-0.766357
47458		-5.198993	-2.078642	10.812943	0.087433	3.420891	1.181729	1.078857	-0.706787	-0.725342
47459		-2.852455	-2.635689	12.168922	0.011194	4.236133	1.454512	1.100830	-0.719482	-0.673584
47460		-4.315752	-2.615927	10.999048	-0.108144	5.239131	1.883070	1.119141	-0.740967	-0.617676
47461		-5.958682	-0.806225	10.514719	0.010361	5.644384	2.141780	1.137451	-0.771240	-0.546387
47462		-7.754032	0.127809	10.080795	0.091368	6.002928	2.211551	1.157715	-0.794678	-0.470947
47463		-15.425010	-0.549936	8.586079	0.092085	5.980517	1.990170	1.169434	-0.820557	-0.402100
47464		-17.066993	-3.568127	7.988727	0.380070	5.550060	1.914091	1.170410	-0.846436	-0.331055
47465		-14.788331	-1.498521	10.115922	0.093808	5.498541	1.830293	1.172852	-0.859131	-0.266846
47466		-12.136270	-3.964812	11.228379	-0.296874	5.558452	1.825869	1.173584	-0.880615	-0.204346
47467		-12.018046	-4.293222	10.881340	-0.454297	5.638688	2.016950	1.170166	-0.902100	-0.142090
47468		-12.224313	-3.503105	9.581097	-0.593310	5.621649	2.130909	1.159912	-0.921631	-0.077637
47469		-12.951459	-2.092029	9.262218	-0.979136	5.590324	2.249377	1.141357	-0.951904	-0.021484
47470		-12.695564	-2.297939	7.749167	-1.479439	5.406344	2.342660	1.124756	-0.975586	0.027832
47471		-15.117938	-2.218208	6.950858	-1.695177	4.645556	2.500139	1.097168	-0.999512	0.055908
47472		-21.293801	-0.228020	11.424611	-2.087581	2.940983	2.432533	1.072021	-1.027832	0.054199
47473		-18.732577	-4.540009	11.438403	-2.533311	0.902964	2.200023	1.057129	-1.040771	0.039307
47474		-14.301785	-6.989576	10.628900	-2.086413	-0.838671	1.906695	1.044678	-1.062744	0.003418
47475		-5.578768	-4.888560	8.984457	-1.719682	-1.671610	1.362988	1.027344	-1.062744	-0.026611
47476		-1.260474	-4.298199	7.215428	-1.534538	-1.724678	0.771240	1.029541	-1.064941	-0.056641
47477		0.167870	-4.726825	6.232006	-1.329293	-1.528742	0.208423	1.029541	-1.067383	-0.080078
47478		0.078215	-5.122518	5.839705	-0.959630	-1.262680	-0.328248	1.035645	-1.052246	-0.099609
47479		-1.579953	-4.702497	6.176075	-0.529647	-1.204352	-0.851429	1.048096	-1.039063	-0.112549
47480		-3.168229	-3.310901	6.590971	-0.203874	-1.440932	-1.387083	1.064941	-1.019531	-0.121338
47481		-3.273126	-1.779182	7.005234	-0.055145	-1.935500	-1.912025	1.090332	-0.997803	-0.147217
47482		-2.683876	-0.368527	6.922879	-0.081686	-2.451495	-2.359308	1.111084	-0.963135	-0.179688
47483		-1.728581	0.307302	6.630167	-0.227074	-2.896659	-2.652125	1.129395	-0.928467	-0.216553
47484		-1.155828	0.220601	6.310550	-0.387399	-3.187860	-2.744166	1.154297	-0.887451	-0.260010
47485		-1.289027	0.200179	6.239774	-0.489678	-3.345803	-2.665248	1.164307	-0.861328	-0.292480
47486		-2.410768	0.505885	6.110393	-0.561643	-3.475323	-2.507260	1.176025	-0.822510	-0.344238
47487		-3.382037	0.937936	6.462770	-0.631234	-3.712594	-2.340718	1.183838	-0.790039	-0.385498
47488		-3.999067	2.087071	7.425030	-0.786907	-3.911540	-2.204288	1.185059	-0.761963	-0.432861
47489		-5.366203	2.279579	7.566068	-1.020892	-4.095275	-2.154362	1.184082	-0.733887	-0.491211
47490		-6.409422	1.392215	7.552145	-1.164774	-4.257963	-2.080574	1.176758	-0.703857	-0.541016
47491		-7.941522	0.424911	7.369197	-1.161916	-4.413134	-1.963963	1.171143	-0.662842	-0.601563
47492		-9.061207	0.009704	7.432346	-1.016190	-4.609174	-1.878800	1.159424	-0.636963	-0.655518
47493		-9.720296	0.112153	7.545746	-0.869579	-4.780232	-1.862943	1.154053	-0.611084	-0.711426
47494		-9.458851	-0.052987	7.809346	-0.756944	-4.891063	-1.935391	1.131348	-0.574463	-0.776367
47495		-9.378712	-0.228984	8.069182	-0.699805	-4.887059	-2.048075	1.113037	-0.550781	-0.819824
47496		-9.621426	-0.773029	8.355076	-0.669742	-4.802642	-2.188422	1.090088	-0.511963	-0.874023
47497		-10.444294	-1.551661	8.590261	-0.565316	-4.757385	-2.354588	1.080566	-0.483887	-0.925781
47498		-10.891111	-1.462738	9.461495	-0.380706	-4.743883	-2.541569	1.053467	-0.449463	-0.979980
47499		-11.835795	0.090595	10.644571	-0.297175	-4.684468	-2.777098	1.036865	-0.404053	-1.030029
47500		-13.417611	0.333815	11.110929	-0.305709	-4.662727	-2.980931	1.009766	-0.371826	-1.082031
47501		-14.971604	-0.236147	11.351957	-0.162216	-4.716662	-3.027241	0.978027	-0.328613	-1.134277
47502		-16.064218	0.149817	11.510710	0.118918	-4.812148	-2.939564	0.948730	-0.300781	-1.181885
47503		-16.698876	0.728043	11.556276	0.391928	-4.875426	-2.770686	0.902344	-0.270508	-1.225342
47504		-17.204231	0.607434	11.574591	0.545901	-4.834895	-2.527825	0.862305	-0.244873	-1.273193
47505		-17.773166	0.114554	11.262248	0.583177	-4.643626	-2.223280	0.816162	-0.225586	-1.314453
47506		-18.668501	-0.158310	10.201306	0.502349	-4.463938	-1.963411	0.763184	-0.204102	-1.351318
47507		-18.599266	-0.914744	8.839335	0.358045	-4.252313	-1.791613	0.717041	-0.180420	-1.384033
47508		-18.373632	-1.255948	6.690866	0.167417	-3.891059	-1.767959	0.677002	-0.156982	-1.416748
47509		-17.359416	-1.306665	3.678759	0.014478	-3.385237	-1.915380	0.635010	-0.128906	-1.434570
47510		-16.295990	0.003658	0.200459	0.016881	-2.716805	-2.176273	0.606201	-0.109619	-1.456543
47511		-19.047708	-0.394738	-4.210456	0.191345	-2.128379	-2.342111	0.586182	-0.096680	-1.465332
47512		-20.704818	1.269391	-8.392859	0.457253	-1.635195	-2.076235	0.564209	-0.085938	-1.478516
47513		-20.216612	5.193443	-10.657920	0.268862	-1.072480	-1.608457	0.550781	-0.074951	-1.478760
47514		-17.765262	3.588439	-10.810944	-0.139691	-0.231596	-1.014673	0.559326	-0.068604	-1.489502
47515		-15.022953	-2.336900	-9.144300	0.157150	0.899867	-0.214584	0.572510	-0.077148	-1.474365
47516		-16.428336	-1.956324	-7.364288	0.895508	1.930380	0.555558	0.603760	-0.105225	-1.462891
47517		-18.348662	0.933972	-4.163563	1.047757	2.502539	0.702515	0.647705	-0.120117	-1.436768
47518		-0.681625	-8.047816	6.400022	1.152237	3.100309	0.922614	0.692139	-0.152588	-1.410400
47519		6.086992	-20.470826	21.510261	1.859647	3.844693	1.423395	0.745850	-0.204346	-1.377197
47520		-0.616025	-0.182475	14.782675	2.523146	4.439197	1.100193	0.801514	-0.249512	-1.337646
47521		-12.647279	7.425988	7.644054	1.766809	4.480002	-0.013736	0.867188	-0.266602	-1.291992
47522		-17.193575	9.931892	8.509417	1.087373	4.249104	0.129210	0.913574	-0.290039	-1.250732
47523		-16.215387	13.905201	12.935592	-0.034457	3.546849	0.483173	0.946533	-0.298584	-1.218262
47524		-11.623594	7.257180	13.410955	-0.958090	3.107619	0.807677	0.987549	-0.291992	-1.186035
47525		-12.742736	-1.471542	10.087102	-1.401621	2.894271	0.557101	1.018066	-0.289551	-1.151855
47526		-16.398757	-9.736254	8.023861	-1.004793	2.518995	0.326575	1.040039	-0.298096	-1.130127
47527		-17.077988	-8.613731	8.132678	-0.236943	1.804294	0.311400	1.055176	-0.298096	-1.117188
47528		-9.655156	-0.030140	9.783059	-0.058855	1.203759	0.305740	1.066650	-0.313232	-1.097656
47529		-6.005488	-2.661363	8.493668	-0.130544	0.923034	0.168843	1.062500	-0.319580	-1.082520
47530		-5.478428	-4.059239	6.990424	0.002642	0.794858	0.198265	1.071533	-0.332520	-1.075928
47531		-5.264874	-3.925725	7.035921	0.150943	0.700347	0.267282	1.080566	-0.343262	-1.064941
47532		-5.551778	-3.307480	7.880954	0.261439	0.614660	0.315907	1.074463	-0.356445	-1.060547
47533		-6.902704	-0.831971	8.216396	0.284850	0.532778	0.351826	1.076904	-0.367188	-1.051758
47534		-6.825818	-0.439345	8.770823	0.207102	0.424595	0.334766	1.070557	-0.373779	-1.038818
47535		-6.515469	-1.033541	8.794646	0.142174	0.372098	0.297147	1.071045	-0.384521	-1.034424
47536		-6.577769	-1.132925	8.305297	0.077593	0.326713	0.226343	1.062500	-0.391113	-1.025879
47537		-6.419735	-1.313053	8.173960	0.077131	0.274246	0.186545	1.067139	-0.401855	-1.019287
47538		-6.514200	-1.718436	7.789348	0.054537	0.217304	0.168349	1.060791	-0.404053	-1.017090
47539		-6.485037	-2.023529	7.724827	0.071257	0.168847	0.188257	1.056641	-0.412598	-1.012695
47540		-6.535152	-1.920554	7.664625	0.099152	0.105182	0.164006	1.048096	-0.416992	-1.006104
47541		-6.688276	-1.314162	7.791989	0.135482	0.017451	0.132816	1.043701	-0.419189	-1.012695
47542		-6.331079	-1.413355	7.982028	0.158482	-0.039044	0.084640	1.035156	-0.423584	-1.001953
47543		-6.548544	-1.376054	7.868104	0.190232	-0.127374	0.048609	1.031006	-0.430176	-0.999756
47544		-6.525014	-1.046591	7.408373	0.222996	-0.197090	0.021540	1.026855	-0.434326	-1.003906
47545		-6.085272	-1.275890	7.533393	0.227613	-0.268670	-0.032295	1.020508	-0.440918	-1.005859
47546		-6.325299	-1.304534	7.753317	0.251555	-0.352037	-0.073206	1.009766	-0.440918	-1.010254
47547		-6.577473	-1.434917	7.767218	0.265951	-0.413691	-0.098964	0.996826	-0.443115	-1.001709
47548		-6.183731	-1.716012	7.890404	0.287425	-0.448414	-0.122615	0.988281	-0.449707	-1.005859
47549		-5.942990	-1.710206	8.033662	0.299143	-0.445477	-0.132304	0.983887	-0.451904	-1.014404
47550		-5.982137	-1.451545	7.949526	0.323503	-0.432973	-0.092221	0.966797	-0.456299	-1.014648
47551		-5.938444	-1.634655	7.911370	0.303563	-0.385926	-0.071025	0.962646	-0.465088	-1.010254
47552		-6.026451	-1.538582	8.149983	0.272176	-0.345695	-0.063426	0.953857	-0.462891	-1.022949
47553		-6.150614	-1.545287	8.207833	0.241154	-0.275449	-0.042842	0.941162	-0.471680	-1.020752
47554		-5.628046	-1.810822	8.295145	0.216772	-0.194737	-0.019385	0.943359	-0.475830	-1.016357
47555		-5.716019	-2.094392	8.063510	0.207387	-0.115073	0.009131	0.937012	-0.480225	-1.018555
47556		-5.883702	-1.693363	8.165653	0.201165	-0.067068	0.035259	0.928467	-0.484619	-1.022705
47557		-5.873541	-1.587655	8.145566	0.191174	-0.013567	0.045253	0.930664	-0.489014	-1.022705
47558		-5.874844	-1.182367	8.372567	0.166463	0.033500	0.055875	0.924316	-0.491211	-1.014160
47559		-6.257378	-0.847547	8.364126	0.148179	0.065856	0.068819	0.917725	-0.491211	-1.016357
47560		-6.099711	-1.212913	8.303177	0.114713	0.104805	0.059443	0.913574	-0.497803	-1.011963
47561		-6.132231	-1.175832	8.306236	0.078639	0.141880	0.064031	0.911621	-0.504150	-1.016113
47562		-6.184106	-1.052178	8.094700	0.065276	0.169242	0.078367	0.911621	-0.506348	-1.011719
47563		-5.977423	-1.245900	7.933086	0.047834	0.177177	0.075887	0.907471	-0.506348	-1.011963
47564		-6.099181	-0.982670	8.007914	0.044225	0.186129	0.086088	0.907715	-0.517334	-1.011719
47565		-5.812077	-1.103984	8.092422	0.030745	0.194892	0.098062	0.905518	-0.515137	-1.007324
47566		-5.773146	-1.344461	8.251676	0.014090	0.230349	0.099907	0.901367	-0.519287	-1.005371
47567		-5.977398	-0.959463	8.520223	0.014184	0.270152	0.118045	0.905762	-0.528076	-1.002930
47568		-6.390269	-0.889337	8.263811	-0.002468	0.320432	0.116722	0.901611	-0.528076	-1.005127
47569		-6.079698	-0.992103	8.241028	0.023198	0.358984	0.102345	0.897217	-0.530273	-1.000732
47570		-6.416278	-0.427860	8.298829	0.028797	0.397622	0.082725	0.903809	-0.534668	-0.996338
47571		-6.632496	-1.094179	8.087790	0.027969	0.441158	0.067652	0.904053	-0.543213	-0.991943
47572		-6.260174	-1.284718	8.417604	0.001387	0.469919	0.075466	0.902100	-0.545410	-0.996338
47573		-6.345400	-1.800476	8.095563	0.001864	0.509090	0.107607	0.913086	-0.549805	-0.987549
47574		-6.162275	-1.887551	8.015134	-0.002252	0.544678	0.142285	0.904541	-0.551758	-0.983398
47575		-6.051519	-1.814416	8.202859	0.031448	0.589217	0.186165	0.913330	-0.560547	-0.978760
47576		-6.189508	-1.404329	8.307295	0.034447	0.662032	0.200974	0.919922	-0.560547	-0.974609
47577		-6.812660	-0.775251	8.497731	0.016383	0.755061	0.209505	0.922363	-0.566895	-0.974365
47578		-6.738147	-0.572699	8.520262	-0.036595	0.842182	0.193009	0.922607	-0.575684	-0.963623
47579		-6.608005	-0.540754	8.728019	-0.084782	0.944594	0.183518	0.929199	-0.582031	-0.957031
47580		-6.750093	-0.759345	8.394577	-0.111634	1.068909	0.169012	0.937988	-0.579834	-0.946289
47581		-6.894756	-0.321613	8.334740	-0.145957	1.171737	0.150403	0.950928	-0.582031	-0.944092
47582		-6.742984	-0.195171	8.550166	-0.176700	1.265574	0.101198	0.959717	-0.582031	-0.931152
47583		-6.801580	-0.680193	8.337108	-0.188833	1.377363	0.066163	0.975098	-0.588379	-0.913818
47584		-6.740527	-1.304995	8.351635	-0.213845	1.492585	0.089684	0.983643	-0.586182	-0.907471
47585		-6.864789	-2.066220	8.132951	-0.215736	1.647961	0.118856	0.996826	-0.588135	-0.892334
47586		-6.005268	-2.367104	7.901573	-0.210880	1.827980	0.216588	1.010010	-0.592529	-0.870850
47587		-4.983546	-2.097650	8.546130	-0.170672	2.053130	0.382819	1.025391	-0.601074	-0.859863
47588		-9.555337	-3.335231	8.666810	-0.069701	2.150721	0.406127	1.038818	-0.609619	-0.829834
47589		-6.139114	-3.283575	9.450378	-0.000563	2.324399	0.535956	1.060547	-0.609375	-0.808350
47590		-4.527730	-3.738891	10.014583	0.014970	2.739429	0.751564	1.078369	-0.620117	-0.775879
47591		-6.745752	-2.566900	9.727533	0.029984	3.121829	0.915749	1.098389	-0.635254	-0.732910
47592		-6.520519	-1.793000	10.594110	-0.005340	3.434874	0.988690	1.114014	-0.645752	-0.702637
47593		-4.509486	-1.362997	10.671980	0.004942	3.907000	1.075892	1.134033	-0.663086	-0.653076
47594		-4.331649	-1.972394	11.066636	0.008911	4.494506	1.188632	1.156250	-0.675781	-0.603516
47595		-5.866247	-1.228637	10.492944	0.067960	5.043530	1.412472	1.176514	-0.699463	-0.536621
47596		-9.540166	0.455910	10.185093	0.090217	5.492302	1.544123	1.189941	-0.712158	-0.470215
47597		-16.999729	-2.899767	9.261940	0.167445	5.645018	1.372450	1.210205	-0.729248	-0.396973
47598		-14.546453	-3.418680	9.562554	0.325075	5.508658	1.443668	1.217529	-0.750732	-0.326172
47599		-12.091076	-2.883019	11.025063	-0.074813	5.653592	1.440240	1.229004	-0.770020	-0.259521
47600		-10.860522	-5.048573	11.106336	-0.300667	5.782316	1.684127	1.229492	-0.780762	-0.182129
47601		-11.536875	-5.477537	10.826717	-0.229542	5.904252	1.916145	1.219482	-0.806641	-0.115479
47602		-13.031928	-3.354089	10.482696	-0.432225	6.078590	2.100105	1.213867	-0.834473	-0.035889
47603		-15.005785	-4.194126	9.816418	-0.839537	6.037174	2.230591	1.190430	-0.851807	0.028320
47604		-16.399197	-4.415331	8.414863	-1.191234	5.529613	2.210871	1.176025	-0.875488	0.082031
47605		-14.093241	-4.750948	5.364206	-1.544683	4.752342	2.220189	1.159668	-0.903564	0.123047
47606		-14.657832	-1.518951	6.783031	-1.435753	3.148250	2.355711	1.129639	-0.918945	0.135986
47607		-19.724011	-2.939300	14.036123	-1.897203	0.793131	2.077222	1.117676	-0.951416	0.123779
47608		-9.895431	-9.454541	11.102064	-1.917098	-0.660750	1.866617	1.098389	-0.966797	0.100342
47609		-1.413788	-8.050575	9.389815	-1.183179	-1.332901	1.588593	1.096680	-0.979980	0.072754
47610		1.637790	-5.943765	7.510328	-0.715691	-1.131208	1.224177	1.081543	-0.984375	0.059814
47611		-0.336763	-4.985042	6.612855	-0.442725	-0.932864	0.700972	1.081787	-0.988770	0.051514
47612		-2.553454	-4.891555	6.670372	-0.213526	-1.023405	0.089244	1.088379	-0.990967	0.040771
47613		-4.783995	-4.541172	7.327607	0.044863	-1.412332	-0.531209	1.098633	-0.975586	0.027832
47614		-6.147196	-3.872164	7.672507	0.289729	-2.115234	-1.118956	1.115479	-0.960449	0.006348
47615		-5.185299	-2.392936	7.833175	0.472037	-2.925253	-1.599895	1.136475	-0.934570	-0.021973
47616		-3.349081	-0.380829	7.522766	0.437237	-3.568225	-1.966772	1.150879	-0.912842	-0.064941
47617		-1.894443	0.595776	7.049490	0.224798	-3.932864	-2.188024	1.171631	-0.880371	-0.110352
47618		-1.420221	0.804168	6.600545	-0.038128	-4.106742	-2.244505	1.187988	-0.845703	-0.155762
47619		-1.154901	0.974092	7.003978	-0.276605	-4.092700	-2.174293	1.200439	-0.826416	-0.207275
47620		-2.937063	1.414147	6.979961	-0.560710	-3.957837	-2.057652	1.212158	-0.791748	-0.257080
47621		-4.645369	1.002002	7.004945	-0.707439	-4.108533	-1.980666	1.213623	-0.770264	-0.312988
47622		-5.207908	1.090413	7.310094	-0.750574	-4.384178	-1.895994	1.216797	-0.733398	-0.362793
47623		-5.489716	1.177709	7.511493	-0.812037	-4.674549	-1.839488	1.218262	-0.711914	-0.425049
47624		-5.821333	1.419541	7.599964	-0.916196	-4.903546	-1.799872	1.215088	-0.679688	-0.489746
47625		-6.326769	1.470056	7.746515	-1.062246	-5.080246	-1.783076	1.200928	-0.645264	-0.556641
47626		-7.187259	0.921197	7.879212	-1.189929	-5.166040	-1.751510	1.189453	-0.623779	-0.616943
47627		-8.426450	0.260355	8.124186	-1.224865	-5.212015	-1.691859	1.177490	-0.589111	-0.681885
47628		-9.635640	0.284718	8.867060	-1.187044	-5.284324	-1.634204	1.154785	-0.559082	-0.748779
47629		-11.868654	0.992402	9.322506	-1.230169	-5.392175	-1.627344	1.127686	-0.529053	-0.811523
47630		-13.785287	0.760463	9.528118	-1.380216	-5.496257	-1.618589	1.106934	-0.490234	-0.885010
47631		-15.128900	0.047692	9.291865	-1.468565	-5.571959	-1.620622	1.075439	-0.462402	-0.956055
47632		-15.426889	-1.162451	9.133567	-1.395161	-5.529755	-1.620975	1.041748	-0.421387	-1.021240
47633		-15.305589	-1.866754	9.120665	-1.167718	-5.375250	-1.621550	1.003662	-0.391357	-1.083984
47634		-15.250782	-1.944296	9.362619	-0.892894	-5.141774	-1.674431	0.968018	-0.356934	-1.140137
47635		-15.342126	-1.616106	9.709242	-0.639329	-4.902245	-1.773145	0.919189	-0.324707	-1.187988
47636		-15.678727	-1.236706	10.309066	-0.463981	-4.638368	-1.897680	0.889893	-0.294434	-1.229492
47637		-16.465619	-0.670588	10.565193	-0.373125	-4.338899	-2.025768	0.852051	-0.264404	-1.279297
47638		-17.261086	0.179183	10.546432	-0.302115	-4.051017	-2.193299	0.816162	-0.225586	-1.310059
47639		-18.478297	0.442177	10.213224	-0.278312	-3.768250	-2.362075	0.769287	-0.188965	-1.347412
47640		-20.677890	-0.320766	8.364582	-0.123902	-3.633809	-2.506537	0.731445	-0.156738	-1.384277
47641		-19.850019	-1.398076	5.763107	0.288707	-3.640810	-2.610352	0.689453	-0.133057	-1.408447
47642		-16.584363	-1.430977	3.600623	0.772934	-3.354776	-2.621020	0.647705	-0.115723	-1.434814
47643		-12.771850	0.399702	1.608340	1.097693	-2.645294	-2.561338	0.623291	-0.104980	-1.449951
47644		-14.584419	2.699360	-0.649019	1.057650	-1.976779	-2.508088	0.594971	-0.098633	-1.469482
47645		-16.682773	3.782703	-3.020928	0.808578	-1.448241	-2.260088	0.581543	-0.085693	-1.478271
47646		-18.083010	5.750568	-5.233042	0.440158	-1.039134	-1.867796	0.566162	-0.077148	-1.480713
47647		-17.442629	5.738000	-7.104174	0.093082	-0.622806	-1.348551	0.559326	-0.070557	-1.480957
47648		-14.585501	3.066498	-6.978249	0.108082	0.064967	-0.701808	0.572266	-0.068359	-1.480713
47649		-12.979976	0.037175	-5.645051	0.590658	0.961725	0.014582	0.592285	-0.083496	-1.476074
47650		-14.975282	0.801783	-3.671158	0.997435	1.662855	0.564067	0.623535	-0.107178	-1.454346
47651		-16.612166	2.216760	-1.723759	0.804066	2.022639	0.702980	0.652588	-0.133057	-1.442871
47652		-3.633628	-4.579031	3.525809	0.691449	2.485341	0.949876	0.681396	-0.156982	-1.414551
47653		4.457155	-15.296877	17.274278	1.186900	3.307161	1.720630	0.739014	-0.193604	-1.387939
47654		0.807758	-4.257706	16.459109	1.567026	4.064881	1.641075	0.787842	-0.225830	-1.355225
47655		-11.326427	1.070267	8.578497	1.297372	4.062055	0.501046	0.840820	-0.251465	-1.311523
47656		-15.935777	3.346383	8.204785	1.100117	4.068703	0.549511	0.891602	-0.275146	-1.268311
47657		-16.564603	8.821479	10.780477	0.364894	3.501928	0.606471	0.937500	-0.287842	-1.239990
47658		-13.689666	3.589313	12.208818	-0.359741	3.019929	0.728589	0.963623	-0.291992	-1.209717
47659		-10.191295	0.153159	10.526332	-0.699783	2.801526	0.570608	0.998779	-0.298340	-1.192383
47660		-11.670925	-3.461004	8.445879	-0.718470	2.604637	0.299978	1.020508	-0.300537	-1.157959
47661		-12.342551	-3.836182	9.303350	-0.533078	2.312451	0.282043	1.044678	-0.306885	-1.132080
47662		-16.848981	-3.940805	10.605756	-0.380958	1.800667	0.230459	1.057861	-0.315430	-1.114746
47663		-7.910093	-0.131150	7.635729	-0.204187	1.248400	0.164399	1.069092	-0.326172	-1.099609
47664		-7.801934	-2.056128	8.870873	-0.209312	0.965945	0.087329	1.071289	-0.321777	-1.088867
47665		-5.370494	-2.980099	8.049279	-0.140553	0.868212	0.087052	1.075928	-0.334717	-1.078125
47666		-5.108850	-2.715252	7.570511	-0.100713	0.858498	0.061423	1.080322	-0.332520	-1.061035
47667		-5.717555	-2.329859	7.693275	-0.073427	0.843647	0.092127	1.087158	-0.345459	-1.043457
47668		-5.764513	-1.980023	7.845023	-0.063005	0.788708	0.094282	1.087158	-0.345459	-1.037109
47669		-6.709252	-1.849902	7.949667	-0.046675	0.699950	0.095595	1.089600	-0.356201	-1.026367
47670		-7.042627	-1.029479	7.972112	-0.044779	0.606159	0.080849	1.094238	-0.362793	-1.026123
47671		-6.485708	-1.534951	8.072317	-0.069932	0.514315	0.048254	1.092041	-0.362793	-1.013428
47672		-6.882263	-1.715157	7.903698	-0.061130	0.437187	0.054303	1.094238	-0.364746	-1.002686
47673		-6.574848	-2.268588	7.470472	-0.000885	0.360869	0.034898	1.092285	-0.369141	-1.000488
47674		-6.184746	-2.465694	7.629521	0.035314	0.272379	0.037434	1.090088	-0.366943	-0.991943
47675		-6.539225	-2.625699	7.500107	0.067521	0.217705	0.067276	1.081787	-0.377930	-0.991699
47676		-6.530627	-2.323178	7.679914	0.089703	0.173451	0.074990	1.081787	-0.384277	-0.989502
47677		-6.084310	-2.662675	7.660999	0.117874	0.130522	0.073184	1.075439	-0.388672	-0.985107
47678		-6.402912	-1.949951	7.388141	0.195503	0.046668	0.075716	1.071533	-0.397461	-0.974365
47679		-7.216006	-0.798890	7.256281	0.261417	-0.095311	0.046590	1.062744	-0.397461	-0.980713
47680		-7.094610	-0.978126	7.484274	0.310141	-0.288590	-0.039074	1.058594	-0.401855	-0.982910
47681		-6.582678	-1.066981	8.201160	0.321085	-0.419324	-0.124829	1.041260	-0.406006	-0.976563
47682		-6.618313	-1.532494	8.172496	0.298414	-0.431188	-0.157710	1.037109	-0.414795	-0.980713
47683		-6.484780	-1.547879	8.127405	0.249364	-0.392071	-0.155038	1.028564	-0.414795	-0.987061
47684		-6.447410	-1.626427	7.819281	0.198110	-0.358274	-0.143122	1.017822	-0.419189	-0.989258
47685		-6.117562	-2.067235	7.825898	0.185973	-0.324275	-0.126396	1.013428	-0.419189	-0.995605
47686		-6.318236	-1.938635	7.752798	0.184719	-0.288479	-0.081840	1.007080	-0.423584	-0.989258
47687		-5.990931	-2.053245	7.874383	0.180684	-0.274733	-0.056831	0.998291	-0.425781	-0.989258
47688		-6.286584	-1.824496	7.583538	0.166155	-0.238095	-0.036820	0.991943	-0.425781	-0.993652
47689		-6.127193	-1.675557	7.955092	0.146619	-0.232595	-0.032506	0.987793	-0.436768	-0.993408
47690		-6.198802	-1.891714	7.964394	0.116934	-0.209860	0.003014	0.977051	-0.434570	-1.001953
47691		-6.013969	-2.109723	7.903149	0.126479	-0.176537	0.040972	0.972656	-0.434570	-1.001953
47692		-6.257766	-2.078165	7.642670	0.135681	-0.129209	0.060642	0.964111	-0.443359	-1.001953
47693		-6.240434	-1.705511	7.695598	0.155885	-0.102926	0.084529	0.957764	-0.447754	-0.999756
47694		-5.716399	-1.835602	8.115823	0.150383	-0.060458	0.082103	0.951416	-0.456299	-0.997559
47695		-6.228677	-1.526650	7.912464	0.140552	-0.026476	0.109544	0.949463	-0.456299	-0.999756
47696		-6.052971	-1.507658	7.946482	0.104492	0.007471	0.105780	0.949463	-0.460693	-0.999512
47697		-6.098561	-1.534102	7.956662	0.098275	0.044709	0.127227	0.945313	-0.465088	-1.001709
47698		-6.004213	-1.527326	8.217954	0.087024	0.081274	0.121995	0.941162	-0.473633	-0.999512
47699		-6.244193	-1.265969	8.159190	0.068817	0.128240	0.124760	0.937012	-0.475830	-1.001465
47700		-6.221830	-1.066963	8.123853	0.045267	0.184398	0.114481	0.937012	-0.482422	-0.999268
47701		-6.289109	-0.554195	8.316960	-0.000622	0.227520	0.094785	0.934814	-0.482422	-0.997070
47702		-6.548527	-0.588094	8.343568	-0.062013	0.287735	0.059992	0.930664	-0.486816	-1.001465
47703		-6.356723	-0.982839	8.281418	-0.121658	0.317585	0.043770	0.933105	-0.490967	-0.988525
47704		-6.371639	-1.321028	8.078127	-0.139041	0.361847	0.049116	0.937256	-0.490967	-0.994873
47705		-6.365484	-2.081120	7.901098	-0.148868	0.408883	0.058820	0.937256	-0.490967	-0.994873
47706		-6.066216	-2.494325	8.103214	-0.131932	0.449058	0.103172	0.937500	-0.495361	-0.992676
47707		-6.133026	-2.433046	8.039495	-0.069932	0.523488	0.158573	0.939697	-0.497559	-0.988281
47708		-6.548752	-1.754760	7.950088	-0.042654	0.589819	0.183018	0.944092	-0.501953	-0.983887
47709		-6.636584	-1.625168	7.885989	-0.020417	0.639599	0.199978	0.944336	-0.508301	-0.979492
47710		-6.409590	-1.449700	8.174529	-0.018344	0.689951	0.205097	0.948975	-0.512695	-0.975098
47711		-6.828186	-1.670317	8.084223	-0.030321	0.771682	0.207123	0.955566	-0.516846	-0.964355
47712		-6.611363	-1.317577	8.350370	-0.030237	0.863675	0.213428	0.959961	-0.523438	-0.964355
47713		-6.447074	-1.621548	8.388816	-0.058992	0.959595	0.199251	0.964600	-0.525635	-0.957764
47714		-6.294289	-1.690272	8.344806	-0.062143	1.060900	0.221139	0.973389	-0.534180	-0.948975
47715		-6.852870	-0.956165	8.431787	-0.061327	1.185520	0.213155	0.982178	-0.538574	-0.936035
47716		-6.928176	-1.208645	8.197021	-0.095539	1.316960	0.206749	0.992920	-0.534180	-0.921143
47717		-6.179624	-1.167478	8.451360	-0.099018	1.425640	0.210011	1.008545	-0.547119	-0.914307
47718		-7.306672	-1.058408	7.974449	-0.114745	1.566484	0.193438	1.021729	-0.546875	-0.897217
47719		-7.163432	-1.100432	8.075275	-0.141275	1.699699	0.181776	1.034912	-0.553223	-0.879883
47720		-6.679470	-1.700043	8.492479	-0.167980	1.863433	0.178600	1.045898	-0.553223	-0.862793
47721		-6.852354	-1.920244	8.376874	-0.192371	2.077521	0.226481	1.063477	-0.559570	-0.841309
47722		-6.788443	-2.004033	8.242830	-0.214373	2.295488	0.288588	1.083008	-0.557373	-0.819824
47723		-6.631664	-1.986907	8.229633	-0.236167	2.521864	0.364320	1.098145	-0.559326	-0.793945
47724		-4.328493	-1.780935	8.540234	-0.287830	2.878300	0.507396	1.120117	-0.565674	-0.757324
47725		-7.777919	-2.751212	9.129943	-0.239997	3.119073	0.576192	1.144287	-0.576416	-0.729248
47726		-10.384479	-3.361905	7.752342	-0.181680	3.272442	0.590001	1.164063	-0.580566	-0.690674
47727		-0.179313	-4.484333	10.662787	-0.154506	3.687945	0.883158	1.182129	-0.602051	-0.638916
47728		-7.374404	-4.573064	8.521868	-0.039444	4.311264	1.239708	1.206543	-0.617188	-0.595703
47729		-7.766800	-3.527761	9.704420	0.046393	4.532731	1.428268	1.218018	-0.632080	-0.529053
47730		-8.792879	-3.763723	10.258042	0.179000	4.937788	1.587439	1.238281	-0.655762	-0.468750
47731		-15.103871	-1.694354	10.083332	0.196252	5.267295	1.528729	1.247803	-0.677246	-0.399902
47732		-17.113985	-4.742442	10.764126	0.250353	5.319339	1.594771	1.252686	-0.696533	-0.328857
47733		-11.638374	-4.339547	12.452219	0.101820	5.476448	1.721010	1.262207	-0.717773	-0.253662
47734		-12.669557	-6.302506	12.725438	-0.310695	5.785441	2.002969	1.265137	-0.739258	-0.182861
47735		-15.552276	-7.533415	12.240541	-0.253423	5.787109	2.283306	1.255127	-0.767334	-0.107422
47736		-13.004826	-5.695248	11.743153	-0.410544	5.751889	2.454279	1.240967	-0.795410	-0.032227
47737		-13.924061	-5.228593	11.518926	-0.745358	5.631899	2.679956	1.218018	-0.825684	0.032227
47738		-13.497900	-5.936820	10.295379	-0.994070	5.362342	2.877825	1.195068	-0.858154	0.083984
47739		-11.182030	-4.662034	7.625164	-1.057032	4.930676	3.027814	1.170166	-0.895020	0.140137
47740		-15.375009	-0.874530	8.907537	-1.070548	3.636053	3.159484	1.143066	-0.927490	0.159668
47741		-20.668433	-3.951123	12.692677	-1.458432	1.670367	2.853549	1.111328	-0.955811	0.160156
