// General information: 
//  MT Manager version: 2021.0.0 
//  XDA version: 2021.0.0 build 5908 rev 109668 built on 2021-04-19
// Device information: 
//  DeviceId: 00B44077
//  ProductCode: MTW2-3A7G6
//  Firmware Version: 4.6.0
//  Hardware Version: 1.1.0
// Device settings: 
//  Filter Profile: human(46.1)
//  Option Flags: Orientation Smoother Disabled, Position/Velocity Smoother Disabled, Continuous Zero Rotation Update Disabled, AHS Disabled, ICC Disabled
// Coordinate system: ENU
PacketCounter	SampleTimeFine	Acc_X	Acc_Y	Acc_Z	Gyr_X	Gyr_Y	Gyr_Z	Mag_X	Mag_Y	Mag_Z
46467		11.703962	0.806109	-0.619556	0.701318	-1.867816	0.706241	-1.037109	0.821533	0.568359
46468		13.061693	-0.576260	0.590833	0.517633	-1.872946	0.684088	-1.017334	0.828369	0.585938
46469		12.360824	-1.237308	0.554156	0.691765	-2.004843	0.603334	-0.997559	0.835205	0.601318
46470		12.744321	-0.278581	1.731060	0.737016	-2.184214	0.555607	-0.980225	0.851074	0.616455
46471		13.218142	-0.816643	1.582875	0.747786	-2.268829	0.533982	-0.949463	0.864746	0.634033
46472		12.526023	-1.209220	0.883970	0.760773	-2.347447	0.490804	-0.931885	0.867188	0.649414
46473		12.237645	-1.177035	-1.708215	0.716302	-2.502242	0.485157	-0.903564	0.887451	0.666748
46474		13.406867	-1.193873	-2.361523	1.134105	-2.695814	0.580841	-0.877197	0.894531	0.679932
46475		16.281402	-0.325369	1.682223	1.515465	-2.929164	0.711014	-0.851074	0.914795	0.690674
46476		17.635460	1.108629	-0.279457	1.600046	-2.959101	0.753182	-0.813965	0.935059	0.694824
46477		17.420330	3.194072	0.337539	1.667530	-2.966418	0.798356	-0.779053	0.953369	0.705566
46478		15.706486	2.688787	-2.642778	1.331707	-2.852782	0.872647	-0.752930	0.967041	0.718506
46479		13.528737	2.006376	-3.030260	1.476278	-2.706899	0.883665	-0.713379	0.985107	0.722656
46480		11.880775	1.068501	-4.913727	1.031360	-2.467891	0.792819	-0.689209	0.996582	0.729248
46481		9.602535	-0.840419	-8.741140	0.707528	-2.327160	0.690719	-0.662842	1.003662	0.738037
46482		7.317962	-2.119690	-10.453987	0.459829	-2.382757	0.627614	-0.634033	1.008301	0.755615
46483		7.908372	-4.578628	-11.036527	0.652858	-2.437412	0.584044	-0.609863	1.017578	0.760010
46484		8.658024	-5.396501	-8.292781	1.323885	-2.193170	0.536607	-0.585693	1.026611	0.766602
46485		8.180985	-4.496590	-7.512735	1.661441	-1.942357	0.432343	-0.559570	1.046875	0.761719
46486		7.726548	-3.145777	-5.133861	1.931652	-1.546157	0.312628	-0.549072	1.060303	0.754883
46487		6.633548	-1.886299	-3.506307	1.748799	-1.027238	0.194468	-0.542725	1.069336	0.739258
46488		5.603404	-1.043445	-3.670354	1.161371	-0.586418	0.057979	-0.538574	1.078369	0.730225
46489		4.726762	-0.545823	-3.886294	0.647591	-0.157340	-0.134414	-0.540771	1.078369	0.732422
46490		4.510287	-1.080613	-5.023465	0.046789	0.348019	-0.358559	-0.553955	1.073730	0.736816
46491		4.161864	-1.746946	-5.480431	-0.301061	0.749398	-0.569692	-0.564941	1.066895	0.739258
46492		4.209031	-2.949827	-5.691485	-0.593602	1.015967	-0.710554	-0.582031	1.051270	0.741699
46493		4.369263	-3.832435	-6.263694	-0.581872	1.271705	-0.808863	-0.613037	1.039795	0.737305
46494		4.268438	-4.049059	-6.642651	-0.450556	1.501720	-0.900385	-0.628174	1.030762	0.737549
46495		4.049369	-4.267438	-6.019079	-0.292979	1.719945	-1.022129	-0.656982	1.023682	0.739746
46496		4.284030	-4.330811	-5.876989	-0.233080	1.967793	-1.141268	-0.692139	1.014404	0.728760
46497		4.306999	-4.298652	-5.631048	-0.130482	2.214828	-1.263927	-0.727539	1.002930	0.713379
46498		4.320965	-4.529362	-5.731522	-0.076193	2.439193	-1.364361	-0.767090	0.989014	0.697998
46499		4.436510	-4.717838	-5.800361	0.054007	2.645155	-1.408822	-0.804443	0.977539	0.678223
46500		4.614711	-4.650448	-6.128454	0.176190	2.869330	-1.410187	-0.842041	0.963867	0.652100
46501		4.730781	-4.208770	-6.221279	0.326842	3.090994	-1.396092	-0.879395	0.954590	0.629883
46502		4.956710	-3.538193	-6.038974	0.336285	3.287112	-1.377461	-0.916992	0.943115	0.599121
46503		5.229927	-2.996366	-6.217166	0.242134	3.446040	-1.355097	-0.954590	0.933594	0.568359
46504		5.520225	-2.546299	-6.099281	0.032017	3.572821	-1.332621	-1.004883	0.910889	0.535645
46505		5.882367	-2.245666	-5.616429	-0.226012	3.684103	-1.313556	-1.040039	0.897217	0.502686
46506		6.517536	-2.258948	-5.419680	-0.643234	3.823305	-1.284783	-1.074951	0.878906	0.469727
46507		6.944840	-3.055238	-6.377898	-0.950130	3.960067	-1.222326	-1.111816	0.854248	0.435059
46508		7.408746	-3.350320	-5.480834	-1.049867	4.049585	-1.149198	-1.146973	0.838135	0.404297
46509		7.785061	-3.780532	-5.674147	-1.249271	4.141849	-1.064118	-1.177490	0.817871	0.369385
46510		7.855778	-3.711352	-5.980468	-1.282049	4.212765	-0.990615	-1.207764	0.799805	0.332275
46511		7.783569	-3.376064	-5.847634	-1.308066	4.258224	-0.947545	-1.238525	0.783936	0.290527
46512		8.046845	-2.746226	-5.593487	-1.371179	4.295176	-0.931160	-1.271240	0.767822	0.255371
46513		8.411242	-2.203468	-6.301946	-1.470045	4.360355	-0.916177	-1.292236	0.736572	0.207764
46514		8.611424	-1.457281	-5.741014	-1.496072	4.393886	-0.937969	-1.318604	0.725098	0.168213
46515		8.917626	-1.421364	-5.866559	-1.644137	4.384717	-0.999235	-1.346680	0.702637	0.120117
46516		9.075803	-1.798453	-6.074368	-1.703591	4.358802	-1.026860	-1.359375	0.686768	0.078369
46517		9.532825	-2.922675	-5.971603	-1.548837	4.288843	-1.070327	-1.380859	0.666504	0.025879
46518		9.769778	-3.687267	-5.596373	-1.104095	4.178676	-1.116529	-1.389160	0.650879	-0.020020
46519		10.004301	-3.407353	-4.865365	-0.533646	4.042938	-1.174394	-1.412842	0.626221	-0.085693
46520		9.709585	-2.200394	-4.255156	-0.033626	3.927914	-1.200456	-1.423340	0.612793	-0.142578
46521		9.856729	-1.203610	-3.516053	0.336158	3.795237	-1.233002	-1.426758	0.588379	-0.190430
46522		10.221997	-0.464019	-3.064013	0.536084	3.682149	-1.262037	-1.435059	0.570313	-0.240723
46523		10.099459	-0.260116	-3.322851	0.543150	3.543555	-1.283687	-1.438721	0.550293	-0.297607
46524		10.406026	-0.847133	-3.366452	0.580371	3.340975	-1.287450	-1.440186	0.536865	-0.343506
46525		10.386034	-0.951709	-2.965776	0.738898	3.154434	-1.257327	-1.446045	0.516846	-0.393799
46526		9.993766	-0.486726	-2.131886	0.868817	2.955116	-1.203093	-1.440674	0.492432	-0.437256
46527		9.587797	-0.227202	-1.295045	0.889683	2.744468	-1.143440	-1.444580	0.476807	-0.483154
46528		8.944183	-0.133749	-1.102787	0.789273	2.531055	-1.067718	-1.439209	0.459229	-0.520264
46529		8.328334	0.151948	-0.104638	0.769127	2.258570	-0.979927	-1.436279	0.439209	-0.557129
46530		8.087818	0.443390	0.798165	0.648200	1.917856	-0.894013	-1.431152	0.425781	-0.581055
46531		7.922184	1.356298	1.071137	0.463805	1.547422	-0.788821	-1.430908	0.414795	-0.604980
46532		7.728293	1.985905	1.582498	0.206580	1.158933	-0.680787	-1.434814	0.405762	-0.617920
46533		7.567152	2.296378	1.639794	-0.198808	0.748103	-0.557073	-1.430176	0.399170	-0.622070
46534		7.227341	1.880401	1.037546	-0.506432	0.277657	-0.419512	-1.427734	0.392578	-0.624268
46535		6.960238	1.195814	0.598951	-0.734987	-0.193790	-0.289979	-1.439209	0.398926	-0.620117
46536		6.807410	0.689819	0.119288	-0.818873	-0.673512	-0.163172	-1.437012	0.401367	-0.602539
46537		7.146206	0.638947	-0.468672	-0.918480	-1.125353	-0.036098	-1.450439	0.403320	-0.580566
46538		7.868061	0.922909	-1.251807	-1.093248	-1.520557	0.088457	-1.450684	0.409912	-0.554199
46539		7.327274	1.284705	-1.789722	-1.461278	-1.856046	0.262924	-1.458252	0.427734	-0.521729
46540		7.870874	0.125257	-2.312385	-1.822849	-2.151095	0.403923	-1.465576	0.445557	-0.484619
46541		16.655433	-1.400254	5.862433	-0.557357	-1.542465	0.173641	-1.470215	0.447754	-0.471680
46542		18.843439	1.542881	11.292117	-1.094695	-0.591259	-0.069334	-1.472412	0.449951	-0.454102
46543		13.313185	0.444810	3.904221	-2.290830	-0.312946	-0.003826	-1.474854	0.456543	-0.432129
46544		9.974223	-4.151835	1.255187	-2.808178	-0.783644	0.177621	-1.479980	0.469727	-0.406006
46545		10.078136	-8.567849	0.032903	-2.544762	-1.309331	0.244488	-1.475830	0.478760	-0.373291
46546		12.876350	-12.178219	-1.882549	-1.116340	-1.680258	0.267995	-1.478516	0.487549	-0.349121
46547		14.064630	-9.807093	-1.982783	0.292060	-1.800485	0.324299	-1.478516	0.489746	-0.324951
46548		11.676228	-1.854659	-1.402866	0.874717	-1.949875	0.340281	-1.478760	0.494141	-0.300781
46549		10.909388	3.931385	0.637619	0.589614	-1.984759	0.274811	-1.483398	0.498535	-0.272461
46550		10.408611	4.238432	-0.481331	-0.181608	-1.841803	0.184581	-1.481201	0.498535	-0.241455
46551		8.702064	0.851306	-3.627027	-0.248490	-1.784160	0.110388	-1.479248	0.503174	-0.217285
46552		7.674522	0.895078	-4.597630	0.497518	-1.846512	0.047034	-1.477051	0.507568	-0.188721
46553		9.108441	3.104566	-2.008356	1.011785	-1.783090	0.020154	-1.475098	0.511963	-0.166992
46554		10.461429	2.847122	-0.443925	0.544850	-1.613339	0.064010	-1.475098	0.514160	-0.145020
46555		10.523569	0.649728	-0.857634	-0.078316	-1.478641	0.133930	-1.475342	0.516602	-0.120605
46556		10.498826	-1.450551	-1.354223	-0.369884	-1.402502	0.194737	-1.466309	0.516602	-0.098633
46557		10.493690	-2.144329	-1.217854	-0.367116	-1.365800	0.213742	-1.464600	0.525391	-0.076904
46558		10.829350	-1.755419	-1.623274	-0.396413	-1.313645	0.211581	-1.462402	0.530029	-0.059326
46559		10.379975	-0.998701	-1.686340	-0.349154	-1.259683	0.164303	-1.453613	0.530029	-0.037109
46560		9.901123	0.185169	-1.635317	-0.250509	-1.195982	0.119204	-1.447510	0.543457	-0.019775
46561		9.580497	1.098300	-2.222440	-0.139982	-1.122666	0.097705	-1.444824	0.536865	-0.004150
46562		9.417748	1.129564	-1.791730	-0.111480	-1.064210	0.084142	-1.445313	0.543457	0.013184
46563		9.970675	0.466862	-1.643577	-0.102491	-0.997497	0.078729	-1.443115	0.545654	0.028564
46564		10.191744	0.300866	-1.548653	-0.115651	-0.933756	0.085008	-1.436523	0.550293	0.043945
46565		10.189797	-0.131938	-1.426669	-0.214567	-0.876926	0.091352	-1.438721	0.550293	0.054932
46566		9.984226	-0.777834	-1.469656	-0.218498	-0.841369	0.086411	-1.423340	0.554932	0.065918
46567		9.784213	-1.008949	-0.999899	-0.177907	-0.814881	0.077620	-1.425537	0.554932	0.076904
46568		9.498724	-0.628754	-0.961459	-0.157611	-0.800191	0.062038	-1.416992	0.563721	0.087891
46569		9.372385	0.169604	-1.163905	-0.122784	-0.786267	0.073814	-1.414551	0.557129	0.103271
46570		9.641346	1.161539	-1.028198	-0.056078	-0.764000	0.081638	-1.408447	0.570557	0.114014
46571		9.888006	1.976645	-0.726795	-0.221535	-0.705260	0.078046	-1.401611	0.570557	0.116455
46572		9.825411	1.377688	-1.957551	-0.419096	-0.629557	0.079139	-1.406006	0.568359	0.131836
46573		9.444016	0.208383	-2.501167	-0.430795	-0.597353	0.074448	-1.401611	0.566162	0.140625
46574		9.467548	-0.784017	-2.354100	-0.393240	-0.583881	0.058645	-1.395020	0.572998	0.153809
46575		10.164691	-0.997203	-2.100236	-0.307690	-0.571370	0.050378	-1.388672	0.577393	0.164795
46576		10.532556	-0.691323	-1.844367	-0.251586	-0.551944	0.049939	-1.383789	0.570801	0.169434
46577		10.390509	-0.619171	-1.679426	-0.230547	-0.534201	0.054200	-1.381836	0.577637	0.177979
46578		10.007759	-0.857720	-1.588893	-0.184770	-0.520986	0.049777	-1.377441	0.579834	0.186768
46579		9.639327	-0.446730	-1.676822	-0.077625	-0.517514	0.044191	-1.379883	0.584229	0.191162
46580		9.649630	-0.189660	-1.736207	-0.007710	-0.515695	0.050928	-1.375244	0.579834	0.199951
46581		9.599406	0.076278	-1.520139	0.059499	-0.527509	0.043907	-1.368896	0.588867	0.204346
46582		9.862143	0.111097	-1.290339	0.091679	-0.530682	0.054168	-1.366699	0.586670	0.206543
46583		9.818764	-0.040069	-1.479368	0.138744	-0.550238	0.054578	-1.364502	0.588867	0.217529
46584		9.947575	-0.408579	-1.426027	0.232554	-0.585315	0.062243	-1.362793	0.597656	0.221680
46585		10.009171	-0.448814	-1.684491	0.308393	-0.613282	0.058004	-1.360596	0.600098	0.228271
46586		10.034129	0.205209	-1.241206	0.348069	-0.636675	0.077547	-1.349365	0.600098	0.234863
46587		9.864801	0.722365	-1.022146	0.284123	-0.631398	0.102520	-1.349854	0.611328	0.236816
46588		9.491922	0.902189	-1.212624	0.235271	-0.637320	0.107559	-1.338867	0.613525	0.245605
46589		9.311415	0.943113	-0.649042	0.182700	-0.669956	0.124961	-1.336670	0.618164	0.256592
46590		9.375504	0.473901	-0.719305	0.147015	-0.722706	0.128621	-1.332520	0.624756	0.260742
46591		9.616280	-0.133711	-0.535500	0.134483	-0.762890	0.134991	-1.325928	0.624756	0.271973
46592		9.417061	-0.839674	-1.191261	0.121071	-0.802074	0.137305	-1.319336	0.629395	0.282959
46593		9.374524	-0.905694	-1.722647	0.211412	-0.840916	0.146008	-1.317139	0.629395	0.289551
46594		9.620202	-0.739760	-2.496770	0.199595	-0.867107	0.167928	-1.310791	0.638428	0.298096
46595		9.995985	-0.665460	-2.749890	0.220353	-0.866944	0.176689	-1.304199	0.640625	0.309082
46596		10.020870	-0.057002	-2.874394	0.223969	-0.863030	0.170732	-1.302002	0.642822	0.309082
46597		10.019985	0.282006	-2.808713	0.207370	-0.848535	0.176434	-1.293457	0.649658	0.324463
46598		9.947446	-0.104949	-2.675128	0.210109	-0.854237	0.179801	-1.286865	0.654297	0.333008
46599		9.588578	-0.644969	-2.481014	0.291753	-0.881500	0.173816	-1.282715	0.663086	0.341797
46600		9.552764	-0.559275	-1.983476	0.449060	-0.936659	0.187716	-1.273926	0.663330	0.343994
46601		9.753585	-0.298821	-1.420826	0.544136	-0.993334	0.212088	-1.269775	0.669922	0.359375
46602		10.068807	0.023692	-1.347406	0.538779	-1.046536	0.234820	-1.261230	0.681152	0.365723
46603		10.301279	0.397291	-1.142895	0.441847	-1.084749	0.268671	-1.250488	0.690186	0.376465
46604		10.188298	-0.105225	-1.665809	0.284683	-1.104902	0.304344	-1.243896	0.697021	0.391846
46605		10.103825	-0.333033	-1.705681	0.334340	-1.163521	0.334882	-1.239746	0.703613	0.402588
46606		10.092010	0.061741	-1.757010	0.260294	-1.199475	0.370038	-1.228760	0.703857	0.416016
46607		9.906174	-0.003065	-1.930534	0.209929	-1.246855	0.397524	-1.213623	0.717285	0.431152
46608		10.097388	-0.032312	-2.023450	0.225229	-1.295887	0.433612	-1.200439	0.721924	0.446533
46609		10.197946	0.291211	-1.786405	0.212100	-1.353848	0.481830	-1.184814	0.724121	0.455322
46610		10.259481	0.197512	-1.538705	0.219689	-1.414568	0.535874	-1.176270	0.735352	0.468262
46611		10.387206	-0.070595	-1.444845	0.243231	-1.480355	0.568099	-1.158936	0.746826	0.488037
46612		10.343101	-0.447673	-1.814510	0.298421	-1.548731	0.588129	-1.143311	0.746826	0.501465
46613		10.288819	-0.724467	-1.991925	0.392716	-1.620753	0.610194	-1.135254	0.767090	0.514160
46614		10.192343	-1.011375	-2.137681	0.553675	-1.681424	0.646743	-1.117676	0.776123	0.531738
46615		10.534539	-0.920216	-2.353691	0.711335	-1.738485	0.666783	-1.098145	0.787598	0.542480
46616		10.747780	0.578152	-1.227952	0.794984	-1.738336	0.711730	-1.072021	0.803223	0.555420
46617		10.395038	1.653774	-1.835841	0.723893	-1.874075	0.748660	-1.061523	0.816895	0.570557
46618		12.828971	1.305041	-0.333990	0.505268	-1.905666	0.751743	-1.037354	0.828125	0.581543
46619		12.176523	-0.388863	0.285583	0.293678	-1.895712	0.736052	-1.019775	0.837158	0.603516
46620		10.989646	-0.944016	0.575782	0.579957	-2.067166	0.706418	-0.998047	0.848633	0.616455
46621		12.002794	-0.340665	1.272361	0.580565	-2.168577	0.688970	-0.973877	0.862305	0.633789
46622		12.175401	-0.488761	0.874267	0.688798	-2.275677	0.646685	-0.949707	0.869141	0.658203
46623		12.158077	-0.350850	-0.470913	0.527993	-2.377810	0.631955	-0.919189	0.885010	0.668945
46624		12.937064	-0.200628	-3.582034	0.500879	-2.534640	0.658639	-0.896973	0.887451	0.688721
46625		14.657848	0.040423	-0.623232	0.969185	-2.840762	0.729483	-0.864014	0.901123	0.699707
46626		17.169914	-0.346999	-0.147029	0.918764	-3.015173	0.779064	-0.826660	0.915039	0.723877
46627		17.847564	0.724989	-0.637919	1.194004	-3.005311	0.773168	-0.802734	0.930908	0.736816
46628		16.313828	2.529857	-0.462985	1.220247	-2.861681	0.726757	-0.767578	0.942383	0.743408
46629		14.352504	1.930471	-3.253419	0.886954	-2.746461	0.709651	-0.737061	0.960449	0.756348
46630		12.713780	0.427240	-5.381298	0.782739	-2.606176	0.667736	-0.710205	0.962891	0.769531
46631		11.857383	-0.772248	-7.837178	0.701794	-2.459985	0.570578	-0.677246	0.974365	0.780518
46632		9.710027	-1.215475	-8.938323	0.679278	-2.373307	0.498984	-0.653076	0.983643	0.798096
46633		8.109373	-2.299554	-10.641722	0.506752	-2.393302	0.443023	-0.628662	0.988281	0.802490
46634		8.352200	-4.738442	-10.793424	0.902021	-2.298207	0.388323	-0.597900	0.999756	0.811279
46635		7.759325	-5.263249	-8.472920	1.735798	-2.077224	0.308697	-0.580566	1.013428	0.808838
46636		7.280299	-4.066603	-5.342419	2.394609	-1.855721	0.137329	-0.568359	1.037842	0.792725
46637		7.017558	-2.141702	-3.326196	2.468478	-1.366612	-0.038279	-0.562256	1.055908	0.779053
46638		6.378568	-0.839555	-3.523605	1.875571	-0.884572	-0.155042	-0.553711	1.067139	0.759033
46639		5.714997	0.314185	-3.580243	1.257793	-0.434360	-0.274634	-0.553955	1.069336	0.756836
46640		5.240837	0.566948	-4.078303	0.471937	0.030156	-0.415534	-0.562500	1.064697	0.761230
46641		5.265968	-0.457850	-5.482832	-0.158976	0.423999	-0.539422	-0.577881	1.053467	0.757080
46642		5.234780	-2.015726	-6.492437	-0.420059	0.757556	-0.637378	-0.593018	1.046631	0.765869
46643		5.580723	-2.860732	-5.931657	-0.447610	0.990324	-0.719645	-0.612793	1.035156	0.774902
46644		5.838070	-3.562642	-5.495460	-0.499997	1.273468	-0.795029	-0.630371	1.028320	0.766113
46645		5.536880	-3.644724	-5.132496	-0.516081	1.608777	-0.861450	-0.658691	1.014648	0.768555
46646		5.057991	-3.661620	-4.995261	-0.573089	1.973903	-0.944810	-0.689453	1.000977	0.764404
46647		4.594975	-3.818415	-5.417881	-0.628491	2.298121	-1.037388	-0.726807	0.987305	0.746826
46648		4.336699	-3.953823	-5.531052	-0.532490	2.586663	-1.130855	-0.759521	0.966797	0.742676
46649		4.534592	-3.910963	-5.957241	-0.474164	2.846656	-1.197886	-0.805664	0.950928	0.729736
46650		4.800363	-3.684609	-6.405521	-0.308268	3.111455	-1.248201	-0.847656	0.937012	0.703369
46651		5.046345	-3.164421	-6.022097	-0.173505	3.353323	-1.303601	-0.889648	0.927734	0.676758
46652		5.275736	-2.750359	-5.906424	-0.223453	3.605228	-1.351811	-0.931152	0.905029	0.650635
46653		5.197715	-2.476076	-5.647695	-0.338863	3.834903	-1.411198	-0.979492	0.891113	0.619873
46654		5.281125	-2.203399	-5.638559	-0.583712	4.032688	-1.485789	-1.019043	0.872803	0.595947
46655		5.345719	-2.317682	-6.532142	-0.860344	4.256522	-1.526219	-1.069336	0.847900	0.563232
46656		5.653945	-2.695253	-6.455238	-1.041502	4.432024	-1.557193	-1.117432	0.820557	0.528320
46657		6.014902	-3.269066	-6.394707	-1.113237	4.613127	-1.564052	-1.165283	0.793457	0.482422
46658		6.413698	-3.598608	-6.197905	-1.163479	4.793471	-1.562765	-1.206787	0.768555	0.436523
46659		6.834764	-3.914455	-6.953000	-1.158844	4.958701	-1.547978	-1.247803	0.739258	0.393066
46660		7.125619	-3.757325	-6.730194	-1.056371	5.103817	-1.553302	-1.291504	0.716553	0.327148
46661		7.818050	-3.942142	-7.561128	-0.980070	5.224939	-1.557836	-1.335205	0.689209	0.270264
46662		8.742086	-4.014578	-7.022129	-0.687371	5.300044	-1.570130	-1.360840	0.664551	0.208984
46663		9.130143	-3.556925	-6.457438	-0.425350	5.343343	-1.546859	-1.391113	0.639648	0.138916
46664		9.897099	-3.032865	-5.390678	-0.223433	5.352983	-1.558347	-1.421387	0.617188	0.066650
46665		10.414183	-2.318135	-5.133971	-0.191907	5.322172	-1.607384	-1.440430	0.592529	-0.005615
46666		11.102012	-0.990066	-4.429527	-0.212616	5.238528	-1.636667	-1.457031	0.563477	-0.079834
46667		11.673566	-0.771640	-3.483241	-0.427823	5.130791	-1.607474	-1.471924	0.545410	-0.152344
46668		12.665285	-0.937568	-2.824724	-0.645845	4.972771	-1.504454	-1.475342	0.520996	-0.222168
46669		12.619503	-0.949827	-2.439577	-0.726786	4.815121	-1.364835	-1.483398	0.500977	-0.290039
46670		12.226133	-0.762783	-1.843823	-0.778223	4.627660	-1.239736	-1.480469	0.483154	-0.346924
46671		11.649799	-1.088272	-1.686127	-0.883070	4.417179	-1.092099	-1.473389	0.469727	-0.408203
46672		11.356535	-1.222991	-1.327256	-0.924239	4.147344	-0.935761	-1.477051	0.451904	-0.469482
46673		11.406757	-1.234541	-3.308803	-1.392399	3.939442	-0.750543	-1.465820	0.449951	-0.517822
46674		8.735729	-1.548601	-1.824311	-0.793306	3.584767	-0.564111	-1.451904	0.441162	-0.559570
46675		6.847092	-2.075202	0.978441	-0.772996	3.035636	-0.421295	-1.447266	0.434570	-0.598877
46676		5.047475	-2.059748	0.482433	-0.511084	2.336377	-0.285294	-1.440674	0.436768	-0.625488
46677		3.309583	-1.065558	2.483997	-0.014715	1.475017	-0.207751	-1.433594	0.427979	-0.642822
46678		4.064616	0.807426	3.172566	0.026435	0.611510	-0.109637	-1.440430	0.434570	-0.649658
46679		5.874073	1.510283	0.479572	-0.030631	-0.110731	0.029605	-1.440430	0.430176	-0.636230
46680		7.031070	1.959153	-1.284480	-0.027650	-0.712295	0.174402	-1.436279	0.439209	-0.625488
46681		8.250234	1.639727	-2.086938	-0.347425	-1.186387	0.318279	-1.447754	0.445801	-0.605713
46682		8.349921	0.755873	-3.304046	-0.758093	-1.559942	0.441458	-1.452393	0.454590	-0.579590
46683		8.687235	0.278233	-3.287110	-0.979995	-1.890754	0.508249	-1.459717	0.467773	-0.546875
46684		8.338126	0.939722	-3.443539	-1.277810	-2.114528	0.549471	-1.464600	0.478760	-0.505371
46685		8.560731	0.989354	-4.723952	-1.397328	-2.337354	0.517509	-1.476807	0.500977	-0.472900
46686		17.014376	0.286251	1.614667	-0.000707	-1.805667	0.187694	-1.474365	0.496582	-0.446289
46687		19.593282	3.796139	8.350465	0.000136	-0.877979	-0.055526	-1.478760	0.498779	-0.437744
46688		13.148405	2.218386	2.828199	-1.570072	-0.577223	-0.017916	-1.476807	0.503174	-0.413574
46689		9.808527	-1.656024	0.058199	-2.263355	-1.005407	0.112320	-1.483887	0.509766	-0.387207
46690		9.991483	-4.867537	0.588417	-2.253186	-1.347251	0.184851	-1.486328	0.518555	-0.356689
46691		11.989704	-8.120608	-1.078067	-1.350311	-1.663391	0.208499	-1.486572	0.525391	-0.325928
46692		13.354858	-7.360776	-0.762273	-0.552057	-1.853466	0.279520	-1.491455	0.529785	-0.292969
46693		11.966829	-3.680652	-2.171697	-0.394470	-1.947418	0.340954	-1.491699	0.538574	-0.258057
46694		10.237712	-0.812259	-0.969747	-0.541605	-1.939899	0.294349	-1.489746	0.547607	-0.233887
46695		9.693658	-0.119500	-0.763490	-0.840493	-1.813577	0.166399	-1.483154	0.545410	-0.196289
46696		8.264688	-1.022625	-4.543871	-0.857519	-1.865309	0.020339	-1.483398	0.552002	-0.165771
46697		8.151339	-2.056539	-5.641060	-0.159426	-1.971703	-0.100876	-1.483398	0.549805	-0.134766
46698		8.950880	-1.022614	-2.399998	0.594683	-1.944179	-0.133341	-1.480957	0.549805	-0.117188
46699		9.808945	2.151048	0.032582	0.761111	-1.809876	-0.116292	-1.469727	0.545410	-0.088379
46700		10.567155	4.066830	0.155340	0.258770	-1.668576	-0.077767	-1.474365	0.549805	-0.059814
46701		10.649194	2.997914	-0.965645	-0.303338	-1.560941	-0.043164	-1.472168	0.552002	-0.035645
46702		11.016305	1.969241	0.009915	-0.800319	-1.428200	0.043986	-1.467773	0.552246	-0.013672
46703		10.645971	0.341420	-2.310036	-1.272368	-1.321425	0.120235	-1.458984	0.554443	0.015137
46704		9.955316	-1.034845	-2.542466	-1.369117	-1.240096	0.118886	-1.461182	0.554443	0.039307
46705		9.908385	-2.147838	-2.212966	-1.222294	-1.174708	0.070418	-1.452637	0.563477	0.065674
46706		10.097364	-2.660355	-2.184567	-0.963080	-1.105227	0.022807	-1.446045	0.563477	0.083252
46707		9.845237	-2.675968	-2.386819	-0.579316	-1.034096	-0.007463	-1.445801	0.554688	0.105469
46708		9.728424	-1.666945	-2.379373	-0.338704	-0.969821	-0.012376	-1.443848	0.561279	0.116455
46709		10.025376	-0.890334	-2.600489	-0.317951	-0.901736	-0.015624	-1.434570	0.556885	0.131836
46710		9.998388	-1.160885	-2.798482	-0.357085	-0.826818	-0.051722	-1.439209	0.559082	0.147217
46711		9.782021	-2.148512	-2.565769	-0.168249	-0.783385	-0.095884	-1.423828	0.565918	0.160400
46712		9.863870	-2.075728	-2.484679	0.094667	-0.777017	-0.118960	-1.421631	0.563721	0.164795
46713		10.010458	-1.200898	-2.395435	0.357268	-0.753739	-0.120106	-1.421631	0.565918	0.175781
46714		10.046644	0.350396	-2.072585	0.398570	-0.701733	-0.112471	-1.417236	0.565918	0.182373
46715		9.864921	0.997592	-1.934526	0.263074	-0.632224	-0.099990	-1.412842	0.568359	0.186768
46716		9.674750	0.757219	-1.840537	0.135847	-0.565285	-0.102612	-1.404053	0.570557	0.193359
46717		9.476741	0.075542	-2.128223	0.135338	-0.535618	-0.105768	-1.401855	0.570557	0.202393
46718		9.771179	0.481927	-1.759452	0.275245	-0.510081	-0.092253	-1.397217	0.568359	0.206787
46719		10.161065	1.055783	-2.033146	0.280995	-0.492031	-0.069292	-1.397217	0.570557	0.208984
46720		10.255432	1.090473	-1.581985	0.159997	-0.440194	-0.054958	-1.397461	0.575195	0.217529
46721		9.854543	0.031934	-1.763335	0.069044	-0.430132	-0.062185	-1.386475	0.577393	0.219727
46722		9.631708	-0.497842	-1.218634	0.229598	-0.447025	-0.055936	-1.382080	0.582031	0.221924
46723		9.789678	0.203190	-0.918345	0.326729	-0.473660	-0.042042	-1.382324	0.584229	0.226318
46724		10.017343	1.011549	-0.487708	0.290767	-0.486659	-0.013894	-1.380127	0.586426	0.230713
46725		9.976322	0.935275	-0.773667	0.107822	-0.505842	0.017115	-1.371338	0.591064	0.237305
46726		9.781685	0.199706	-0.761459	0.033578	-0.522428	0.034378	-1.366943	0.591064	0.248291
46727		9.729464	-0.588216	-1.219630	0.021222	-0.521138	0.042601	-1.364746	0.591064	0.252686
46728		9.521750	-0.899118	-1.707521	0.099462	-0.544080	0.030005	-1.362549	0.595459	0.254883
46729		9.511657	-0.723077	-1.900862	0.252876	-0.588247	0.032633	-1.355957	0.595459	0.257080
46730		9.592817	-0.293225	-1.523621	0.352533	-0.612398	0.035671	-1.354004	0.604492	0.263428
46731		9.476143	0.259184	-1.167280	0.368994	-0.628060	0.040261	-1.342773	0.604736	0.272217
46732		9.290498	0.640415	-1.029357	0.291983	-0.646759	0.046136	-1.347656	0.611328	0.281006
46733		9.321637	0.674053	-0.845799	0.211218	-0.669982	0.055437	-1.334473	0.615723	0.283203
46734		9.465939	0.769847	-1.008894	0.061412	-0.675681	0.071124	-1.330078	0.620361	0.298340
46735		9.570978	0.263497	-1.275336	-0.057583	-0.691296	0.095395	-1.323242	0.615967	0.302979
46736		9.693203	-0.068022	-1.641613	-0.119329	-0.715234	0.109217	-1.321289	0.624756	0.311523
46737		9.879037	-0.394766	-1.989177	-0.148260	-0.728911	0.111000	-1.316895	0.620361	0.324951
46738		9.775062	-0.932601	-2.218895	-0.111335	-0.746396	0.106320	-1.308105	0.627197	0.329346
46739		9.584943	-1.086681	-2.346613	0.048017	-0.801360	0.103654	-1.306152	0.634033	0.340088
46740		9.674162	-0.400377	-2.080939	0.182893	-0.831377	0.105036	-1.306152	0.636230	0.348877
46741		9.619336	0.208662	-1.617542	0.236367	-0.859132	0.128141	-1.295166	0.638428	0.364258
46742		9.724030	0.435178	-1.427232	0.226907	-0.895982	0.139577	-1.286377	0.640869	0.375244
46743		9.883699	0.491995	-1.451909	0.160893	-0.926054	0.146345	-1.282227	0.649658	0.384033
46744		9.996234	-0.108087	-1.771319	0.191945	-0.960635	0.146816	-1.275635	0.652100	0.390625
46745		9.794469	-0.265760	-2.011231	0.267233	-1.025144	0.155358	-1.264893	0.658936	0.405762
46746		10.054994	-0.287417	-1.830183	0.366166	-1.087603	0.170640	-1.258301	0.661133	0.412354
46747		10.117897	-0.247569	-1.887117	0.409143	-1.141712	0.191597	-1.249268	0.663574	0.423340
46748		9.983163	-0.506090	-2.012301	0.396352	-1.181582	0.212252	-1.238525	0.672363	0.438721
46749		10.073719	-0.769308	-2.076121	0.441031	-1.223169	0.239866	-1.232178	0.681396	0.451660
46750		10.288255	-0.581519	-2.433270	0.420480	-1.259315	0.258881	-1.219238	0.690430	0.451660
46751		10.576074	-0.242786	-2.053426	0.387937	-1.283277	0.296955	-1.210449	0.695068	0.473633
46752		10.418412	-0.167226	-2.284980	0.321439	-1.312734	0.331871	-1.197266	0.701904	0.489014
46753		10.320255	-0.193673	-2.266700	0.329916	-1.360586	0.353980	-1.184082	0.704102	0.502197
46754		10.120888	-0.071598	-2.264425	0.412425	-1.416893	0.378957	-1.171143	0.715576	0.512939
46755		9.814433	-0.068160	-2.413211	0.480559	-1.483632	0.392857	-1.162598	0.722168	0.521729
46756		10.270611	-0.173975	-2.424279	0.644442	-1.552505	0.420964	-1.151855	0.738037	0.539063
46757		10.579987	0.752009	-1.782796	0.710818	-1.590375	0.471731	-1.132324	0.747070	0.549805
46758		10.894308	0.795695	-2.405869	0.716614	-1.723296	0.514486	-1.123535	0.753906	0.562988
46759		12.996725	-0.371051	-1.285833	0.631106	-1.750850	0.524151	-1.102051	0.774170	0.580322
46760		11.908738	-1.503676	-0.761791	0.612442	-1.745881	0.521472	-1.082275	0.781006	0.591309
46761		10.823188	-0.859913	-0.304555	0.776189	-1.872554	0.524024	-1.064941	0.790039	0.604248
46762		12.132744	-0.421085	0.477344	0.680734	-1.951897	0.539773	-1.047363	0.799072	0.628418
46763		12.205575	-1.120229	0.602313	0.565988	-1.993185	0.536009	-1.025391	0.810547	0.636963
46764		11.694687	-2.033216	0.534188	0.513105	-2.101980	0.501273	-1.003662	0.819580	0.658936
46765		12.081541	-2.524604	0.200775	0.805805	-2.237916	0.453167	-0.983887	0.831055	0.669922
46766		13.207307	-1.298749	-0.260398	1.151192	-2.341342	0.412424	-0.957764	0.844482	0.682861
46767		13.815840	-0.380719	-1.794072	1.364098	-2.427048	0.417784	-0.933838	0.860352	0.691406
46768		14.311289	0.725416	-0.235556	1.731248	-2.646768	0.471159	-0.903076	0.874023	0.697998
46769		15.098422	1.345204	-0.680454	1.617370	-2.813873	0.544918	-0.870361	0.892334	0.710938
46770		15.121812	0.524700	-2.684441	1.557868	-2.847773	0.615399	-0.844238	0.910400	0.721680
46771		14.971976	0.545643	-2.130930	1.766517	-2.885287	0.598275	-0.813721	0.928467	0.730225
46772		14.041588	0.980936	-3.279266	1.619661	-2.732273	0.588578	-0.787598	0.944336	0.740967
46773		12.466550	-0.046102	-5.128396	1.537424	-2.583768	0.614240	-0.763916	0.964600	0.742676
46774		10.811678	-0.517050	-5.359922	1.490126	-2.419887	0.567732	-0.737793	0.978271	0.747070
46775		9.804034	-0.359862	-5.242360	1.301204	-2.195723	0.506715	-0.713623	0.989746	0.755615
46776		8.954352	-0.701848	-6.355775	1.132971	-1.960279	0.423955	-0.687012	0.996582	0.757813
46777		7.454015	-1.187754	-7.904107	0.913076	-1.809696	0.329981	-0.674316	1.010010	0.766357
46778		6.328559	-2.122820	-9.898349	0.672926	-1.791747	0.228567	-0.649902	1.012695	0.768799
46779		6.186340	-3.266185	-9.342932	0.870335	-1.713651	0.079362	-0.636719	1.019531	0.772949
46780		6.809867	-4.444924	-8.186184	1.145339	-1.510992	-0.025625	-0.628174	1.032959	0.766113
46781		7.161454	-4.341822	-6.128614	1.621037	-1.235025	-0.129017	-0.621582	1.035156	0.768311
46782		6.903291	-3.388430	-4.337631	1.823528	-0.795121	-0.250677	-0.617920	1.052979	0.752441
46783		6.273436	-3.506819	-3.919493	1.746266	-0.369158	-0.337953	-0.622803	1.066406	0.743408
46784		5.136763	-2.393719	-3.571160	1.432905	0.120887	-0.440192	-0.636230	1.063965	0.727783
46785		4.015226	-2.229578	-4.742753	0.869260	0.505921	-0.541528	-0.643066	1.066162	0.718994
46786		3.821450	-2.195746	-4.789525	0.325413	0.763604	-0.641281	-0.660645	1.063721	0.714600
46787		4.288412	-2.807230	-5.174388	-0.051518	1.072581	-0.742610	-0.680420	1.056885	0.708008
46788		4.776144	-3.417363	-5.092346	-0.133418	1.358678	-0.831543	-0.704590	1.045410	0.705811
46789		5.256568	-3.423345	-4.446118	-0.084307	1.633767	-0.900340	-0.722168	1.036377	0.697266
46790		5.458804	-3.218837	-4.221034	-0.153620	1.896455	-0.956255	-0.759277	1.020264	0.686279
46791		5.477452	-2.815582	-4.425180	-0.356316	2.138358	-1.021666	-0.783936	1.017822	0.675293
46792		5.405784	-2.567892	-5.012478	-0.583539	2.363700	-1.101178	-0.821045	0.999756	0.664551
46793		5.412585	-2.672720	-5.277792	-0.716555	2.590408	-1.173343	-0.851563	0.983643	0.657959
46794		5.354465	-3.127682	-5.349405	-0.789471	2.800012	-1.235264	-0.888672	0.963379	0.642822
46795		5.505105	-3.718925	-5.217717	-0.754730	3.002412	-1.275286	-0.928223	0.947266	0.623291
46796		5.649505	-3.989951	-5.700072	-0.711894	3.250127	-1.303710	-0.962891	0.922363	0.601563
46797		5.420930	-4.050280	-6.594394	-0.494598	3.439043	-1.331373	-1.009277	0.908691	0.566406
46798		5.456944	-3.677368	-6.360007	-0.323520	3.571677	-1.388421	-1.048828	0.894775	0.537842
46799		5.738660	-3.272467	-6.363860	-0.185108	3.708973	-1.440952	-1.086182	0.878906	0.505127
46800		6.183420	-2.625059	-5.618144	-0.175132	3.834264	-1.488270	-1.127686	0.858398	0.463379
46801		6.668529	-2.444441	-5.477592	-0.356555	3.976668	-1.518114	-1.164795	0.835693	0.428467
46802		7.017215	-2.565945	-6.213376	-0.569935	4.130050	-1.522745	-1.201660	0.813232	0.384766
46803		7.191048	-2.458750	-5.835442	-0.575612	4.234140	-1.518058	-1.238770	0.790527	0.336670
46804		7.557620	-2.667688	-5.520788	-0.755259	4.341803	-1.492426	-1.271240	0.767822	0.295166
46805		7.747081	-2.685574	-6.079664	-0.840160	4.465918	-1.475122	-1.301514	0.743164	0.244873
46806		8.173553	-2.472000	-6.037158	-0.947608	4.564384	-1.464469	-1.336426	0.724854	0.196777
46807		8.885166	-2.860720	-6.920388	-1.156424	4.661939	-1.428804	-1.364258	0.697998	0.137695
46808		9.897653	-3.249695	-7.250650	-0.964153	4.719369	-1.353851	-1.383545	0.675537	0.089600
46809		10.477854	-3.147360	-4.967148	-0.645660	4.683574	-1.300380	-1.402832	0.657471	0.021729
46810		10.766302	-3.018528	-4.549760	-0.604188	4.596288	-1.272575	-1.422119	0.637207	-0.030762
46811		10.937554	-2.187305	-4.240629	-0.447381	4.457140	-1.287581	-1.430176	0.617188	-0.096436
46812		10.690194	-1.181571	-2.898612	-0.501356	4.316458	-1.261632	-1.442871	0.601563	-0.153564
46813		10.967763	-0.796163	-2.154957	-0.700821	4.157535	-1.197739	-1.450928	0.579102	-0.208008
46814		11.087967	-1.267902	-2.189529	-0.839774	3.987621	-1.109301	-1.454834	0.563477	-0.260498
46815		10.981543	-1.593427	-2.181488	-0.740319	3.783822	-1.030333	-1.451904	0.547852	-0.308594
46816		10.415262	-1.469602	-2.052424	-0.603414	3.550632	-0.968410	-1.453857	0.539063	-0.356934
46817		9.742365	-1.245867	-1.613880	-0.475124	3.288317	-0.897620	-1.455078	0.516846	-0.402588
46818		9.163773	-0.502547	-1.060686	-0.424670	3.008570	-0.797259	-1.443604	0.512451	-0.439941
46819		8.917675	0.108464	-0.501669	-0.553913	2.691735	-0.671365	-1.449951	0.503418	-0.479492
46820		8.936472	-0.143146	-1.157562	-0.935455	2.436936	-0.562633	-1.447510	0.496826	-0.503418
46821		8.255568	-0.965533	-2.145468	-0.795082	2.148567	-0.447973	-1.438477	0.492432	-0.531982
46822		7.738258	-1.056369	0.140629	-0.570631	1.739139	-0.377899	-1.433594	0.485840	-0.551758
46823		7.725686	-0.860684	-0.490592	-0.586777	1.337146	-0.315486	-1.431641	0.490479	-0.560547
46824		7.427218	-0.222731	-0.632131	-0.460088	0.935950	-0.275799	-1.431641	0.488037	-0.567139
46825		7.107359	0.341782	-0.072806	-0.459392	0.501163	-0.239239	-1.427002	0.486084	-0.573730
46826		7.213031	0.748876	-0.327499	-0.549063	0.051946	-0.169830	-1.429199	0.488281	-0.573730
46827		7.265988	0.752878	-0.628869	-0.607362	-0.379678	-0.087663	-1.440674	0.492432	-0.556152
46828		6.842041	0.912197	-1.369208	-0.711983	-0.822635	-0.011827	-1.440918	0.499268	-0.541016
46829		6.819558	0.963248	-1.732111	-0.864259	-1.259989	0.066347	-1.445557	0.501221	-0.510254
46830		7.197002	0.779936	-2.149920	-1.078973	-1.669785	0.157271	-1.452393	0.505615	-0.483887
46831		11.512223	-0.057940	0.369701	-0.655615	-1.867109	0.153633	-1.452881	0.519043	-0.455566
46832		18.233143	-0.334733	8.778418	-0.024348	-1.152815	0.071829	-1.450928	0.523438	-0.444580
46833		17.529058	0.538932	9.295496	-1.394600	-0.592239	0.110335	-1.462158	0.525635	-0.420654
46834		11.725431	-0.650007	3.373856	-2.710738	-0.611872	0.195858	-1.453613	0.536865	-0.403076
46835		8.819404	-6.288011	1.344627	-2.895711	-1.218303	0.266345	-1.463135	0.552246	-0.364014
46836		9.858237	-9.076742	0.464056	-2.186137	-1.729097	0.253923	-1.461182	0.559082	-0.326660
46837		12.130335	-10.294336	-2.603745	-0.892275	-1.990733	0.199177	-1.468018	0.561035	-0.293701
46838		12.649785	-5.878658	-4.327790	0.203028	-2.046659	0.223772	-1.461426	0.561279	-0.264893
46839		10.047479	0.150422	-3.834978	0.561893	-2.091742	0.219648	-1.461914	0.572266	-0.240967
46840		8.850469	4.483998	-1.342894	0.222131	-2.106590	0.136032	-1.461914	0.572266	-0.199219
46841		9.589351	4.364213	-2.596812	-0.444006	-2.105840	0.008805	-1.457275	0.570068	-0.168213
46842		10.584797	0.910829	-3.811162	-0.476241	-2.028733	-0.060624	-1.461914	0.572266	-0.139648
46843		9.554331	-0.895717	-3.314745	-0.160571	-1.910737	-0.067178	-1.455322	0.574463	-0.113281
46844		8.517607	-0.154790	-1.536155	0.175830	-1.785438	-0.085061	-1.459717	0.574463	-0.086914
46845		8.805187	1.078968	0.042695	0.134554	-1.694009	-0.092499	-1.448730	0.576904	-0.066895
46846		10.134325	0.923523	0.260797	-0.207696	-1.610996	-0.034171	-1.446533	0.576904	-0.036133
46847		11.049123	0.829324	0.088279	-0.907481	-1.489197	0.054524	-1.442139	0.579102	-0.011963
46848		10.607875	-0.386690	-1.080135	-1.338273	-1.382272	0.094625	-1.442139	0.581299	0.016602
46849		9.519855	-1.628025	-1.844754	-1.284027	-1.331248	0.058084	-1.435547	0.581543	0.045410
46850		9.058759	-2.238069	-2.174975	-0.849906	-1.310790	-0.001758	-1.431152	0.583740	0.065186
46851		9.832709	-1.725350	-1.492727	-0.389507	-1.249408	-0.028165	-1.429199	0.590332	0.087158
46852		10.003984	-0.811352	-1.314902	-0.153958	-1.176788	-0.030036	-1.417725	0.581543	0.102783
46853		9.836050	0.549134	-1.037496	-0.133862	-1.160979	-0.015724	-1.418213	0.590576	0.117920
46854		10.059956	0.181082	-1.138542	-0.323717	-1.120291	0.020347	-1.411377	0.590576	0.133545
46855		10.080385	-0.111795	-1.731406	-0.486982	-1.060231	0.031475	-1.408936	0.586182	0.155518
46856		10.095191	-0.232939	-2.697740	-0.442463	-1.012677	0.013321	-1.402344	0.588379	0.166504
46857		10.089913	-0.842124	-3.455958	-0.302918	-0.979075	-0.007232	-1.395752	0.590820	0.181885
46858		9.988308	-1.981636	-3.255517	-0.060479	-0.949570	-0.035646	-1.391357	0.590820	0.197510
46859		9.657454	-1.871341	-2.860488	0.186319	-0.915918	-0.062595	-1.387207	0.597412	0.210449
46860		10.107730	-1.243229	-2.797037	0.269954	-0.865535	-0.061924	-1.380371	0.595215	0.219482
46861		10.489460	-0.204693	-2.462078	0.276507	-0.792587	-0.048726	-1.378174	0.597656	0.228271
46862		10.445614	0.819514	-2.484538	0.182774	-0.714769	-0.023413	-1.369629	0.602051	0.234863
46863		10.139351	1.182714	-2.483073	0.005893	-0.642696	-0.012585	-1.364990	0.599854	0.243652
46864		9.891310	0.442286	-3.248203	-0.111167	-0.564378	-0.003833	-1.360596	0.600098	0.252441
46865		9.583218	-0.006047	-3.415841	-0.054636	-0.518288	-0.013124	-1.364990	0.602051	0.256836
46866		9.610653	0.168873	-3.466652	0.069162	-0.484772	-0.017096	-1.354004	0.602295	0.263428
46867		9.873292	0.113470	-3.081324	0.162892	-0.448072	-0.026520	-1.349854	0.611328	0.265381
46868		10.018525	0.253111	-2.301209	0.202454	-0.443247	-0.050625	-1.347412	0.609131	0.274414
46869		10.150767	-0.702240	-2.079314	0.163791	-0.417911	-0.049922	-1.347656	0.613525	0.271973
46870		9.820564	-1.001001	-1.782698	0.224875	-0.425210	-0.048772	-1.338623	0.611328	0.272217
46871		9.876186	-0.738387	-1.430287	0.323769	-0.450169	-0.029632	-1.341064	0.613525	0.283203
46872		10.094993	-0.248792	-1.058208	0.337791	-0.465562	-0.006746	-1.334473	0.620361	0.282959
46873		9.716506	0.123827	-1.024543	0.293081	-0.481578	0.006415	-1.336914	0.620361	0.291748
46874		9.931999	0.039662	-0.903507	0.309524	-0.525063	0.025814	-1.325928	0.629395	0.293945
46875		9.913667	-0.013491	-1.155051	0.295349	-0.546617	0.032498	-1.326172	0.631592	0.298096
46876		9.701570	-0.371775	-1.251948	0.332019	-0.580286	0.028168	-1.317139	0.631592	0.302734
46877		9.338830	-0.417913	-1.398458	0.376198	-0.634986	0.035124	-1.312744	0.633789	0.304932
46878		9.252681	-0.201199	-0.961916	0.443615	-0.680233	0.049861	-1.310791	0.636230	0.311279
46879		9.395339	0.335299	-0.776869	0.375446	-0.712753	0.074073	-1.306396	0.640625	0.322266
46880		9.430723	0.098923	-1.387779	0.214609	-0.729955	0.087334	-1.302246	0.647217	0.328857
46881		9.793661	0.206359	-1.614911	0.157437	-0.761440	0.105647	-1.297852	0.651855	0.335205
46882		9.934609	0.063610	-2.286974	0.049779	-0.762821	0.132102	-1.291260	0.654053	0.348633
46883		9.850714	-0.759740	-2.723365	0.077124	-0.780722	0.138286	-1.282715	0.660889	0.354980
46884		9.831525	-0.543705	-2.954238	0.231507	-0.814649	0.128151	-1.273682	0.660889	0.363770
46885		10.068725	-0.494197	-2.651965	0.391063	-0.856176	0.121785	-1.278564	0.667725	0.368164
46886		10.065186	-0.512658	-2.210613	0.570782	-0.898580	0.111649	-1.265137	0.667725	0.376953
46887		10.074706	0.102850	-1.284347	0.761474	-0.980312	0.115216	-1.259033	0.683350	0.381104
46888		10.266499	0.243419	-0.786496	0.758360	-1.047696	0.147464	-1.252441	0.687988	0.392090
46889		10.267625	-0.146845	-0.591197	0.776093	-1.124340	0.177463	-1.241699	0.697021	0.396240
46890		10.006240	-0.011649	-0.853892	0.788975	-1.198217	0.208976	-1.233154	0.703613	0.409424
46891		9.630174	0.100814	-1.146652	0.672899	-1.255468	0.260617	-1.222168	0.708252	0.427002
46892		9.914062	-0.162249	-1.289655	0.524277	-1.297089	0.316028	-1.213379	0.715088	0.431152
46893		10.408504	0.011384	-1.205133	0.347293	-1.354123	0.380892	-1.204834	0.724121	0.442139
46894		10.894379	0.093941	-0.626392	0.197819	-1.409275	0.450605	-1.187256	0.730957	0.464111
46895		11.130957	-0.033812	-0.309462	0.171271	-1.484263	0.511785	-1.181152	0.744385	0.472656
46896		10.818422	0.349718	-0.351931	0.185729	-1.569906	0.559630	-1.165771	0.749023	0.494629
46897		10.487637	0.797277	-0.635717	0.218478	-1.672771	0.593412	-1.145996	0.755859	0.507813
46898		10.628284	0.477101	-1.089015	0.320204	-1.771911	0.612822	-1.126221	0.764893	0.522949
46899		11.110773	1.000020	-0.365770	0.553773	-1.825568	0.624321	-1.106445	0.773926	0.547119
46900		10.831931	1.158622	-1.080347	0.580545	-1.972564	0.640611	-1.096191	0.791992	0.557861
46901		12.539734	0.153478	-0.571638	0.614168	-2.121078	0.648034	-1.073975	0.798828	0.577637
46902		13.500012	-1.944681	0.379399	0.642243	-2.142439	0.599186	-1.052246	0.812500	0.599365
46903		11.935470	-2.512001	1.133580	0.912083	-2.276891	0.561268	-1.028076	0.821533	0.610352
46904		12.219390	-2.174909	1.898837	1.124489	-2.411032	0.554518	-1.011230	0.841797	0.625488
46905		12.768494	-1.912151	1.643892	1.242034	-2.486946	0.543209	-0.980469	0.855469	0.642822
46906		13.155023	-1.417235	-0.152597	1.310200	-2.508235	0.556227	-0.954102	0.869141	0.655762
46907		12.849920	-0.542495	-0.566700	1.643968	-2.654370	0.655168	-0.923828	0.891602	0.664307
46908		14.064777	0.538685	1.342313	1.877428	-2.988161	0.793618	-0.895752	0.912109	0.668457
46909		15.780602	1.244187	-0.390673	1.780717	-3.156147	0.880752	-0.858398	0.930176	0.681396
46910		16.732800	2.187315	-0.991624	1.960142	-3.167244	0.922095	-0.823730	0.955078	0.687500
46911		16.313900	3.029983	-1.192538	1.717243	-2.957253	0.942155	-0.791016	0.973145	0.700439
46912		14.548535	2.383390	-3.436728	1.371309	-2.694885	0.916257	-0.762451	0.986816	0.713623
46913		13.328021	-0.089359	-4.579726	1.110453	-2.415133	0.819800	-0.734375	1.005127	0.717773
46914		11.136432	-1.265190	-6.498297	0.946736	-2.151165	0.762479	-0.705811	1.018799	0.728516
46915		9.986879	-1.644550	-7.273259	0.844462	-1.995816	0.692086	-0.683594	1.021240	0.735352
46916		8.274405	-2.195043	-9.407805	0.642397	-1.919587	0.606398	-0.663818	1.028076	0.743896
46917		7.077731	-3.524975	-11.293650	0.407554	-2.079700	0.488289	-0.635254	1.037354	0.754883
46918		7.031448	-4.509067	-10.258788	0.923588	-1.927132	0.348941	-0.617676	1.044189	0.754883
46919		7.034638	-5.065055	-8.031265	1.434591	-1.692607	0.197333	-0.602295	1.055420	0.756836
46920		7.657978	-4.058627	-4.583302	2.198344	-1.285119	-0.018016	-0.593994	1.071045	0.734619
46921		7.490318	-2.516941	-3.258774	2.069405	-0.750364	-0.198167	-0.599121	1.084473	0.727539
46922		6.514879	-1.635277	-3.307997	1.532386	-0.218188	-0.348633	-0.599365	1.093262	0.711914
46923		5.253312	-0.827966	-3.530550	0.860040	0.320561	-0.517067	-0.615234	1.095459	0.707275
46924		4.182558	-1.386924	-4.680607	0.122880	0.788989	-0.714535	-0.635010	1.090576	0.702881
46925		3.721288	-2.793468	-5.766353	-0.367331	1.127589	-0.922123	-0.656494	1.070313	0.707764
46926		3.905848	-4.153365	-5.925071	-0.407144	1.355850	-1.110717	-0.678223	1.056885	0.701416
46927		4.664513	-4.718688	-5.303337	-0.197787	1.583997	-1.244943	-0.713379	1.040771	0.697021
46928		5.061571	-4.890778	-5.284830	0.054727	1.900357	-1.345438	-0.742188	1.038330	0.683838
46929		4.855918	-4.300978	-4.834953	0.276220	2.212701	-1.456936	-0.783936	1.022217	0.670654
46930		4.427808	-3.227056	-3.880487	0.229738	2.520750	-1.575511	-0.821533	1.012939	0.648682
46931		4.237973	-2.603508	-4.503925	-0.178579	2.805059	-1.681040	-0.856445	0.992676	0.631348
46932		4.190841	-2.703426	-5.871356	-0.460178	3.050997	-1.773813	-0.906738	0.965332	0.614014
46933		4.174869	-3.117538	-6.180873	-0.559493	3.252553	-1.854128	-0.957520	0.951416	0.589844
46934		4.368468	-3.617055	-6.410557	-0.536748	3.426189	-1.912927	-1.003418	0.928711	0.568115
46935		4.620891	-3.787885	-6.030723	-0.337074	3.603783	-1.967404	-1.042480	0.901611	0.533447
46936		4.848370	-3.508902	-5.699324	-0.272813	3.813491	-2.015993	-1.086182	0.878906	0.500732
46937		5.335172	-3.343653	-7.197816	-0.533301	4.087996	-2.051072	-1.136475	0.851563	0.459229
46938		5.131318	-3.283924	-8.677876	-0.366831	4.278135	-2.066958	-1.179932	0.826660	0.415527
46939		5.468055	-3.207785	-6.708539	-0.238155	4.350624	-2.096543	-1.225830	0.801758	0.367188
46940		6.519233	-3.349571	-6.381068	-0.273717	4.445359	-2.083438	-1.264404	0.763428	0.317383
46941		7.311061	-2.922366	-6.011759	-0.172270	4.534185	-2.057965	-1.303711	0.743164	0.260254
46942		7.980503	-2.440754	-5.342281	-0.346309	4.625094	-2.063870	-1.340332	0.711426	0.210205
46943		8.712100	-2.648044	-6.102794	-0.647157	4.728816	-2.048639	-1.368164	0.682373	0.151367
46944		8.834257	-2.434967	-6.337770	-0.700061	4.776902	-2.019461	-1.402832	0.655273	0.087891
46945		9.377307	-2.501261	-5.681539	-0.801470	4.799797	-1.949766	-1.421631	0.621582	0.031250
46946		10.257939	-2.736625	-5.825746	-0.894340	4.840287	-1.887117	-1.442871	0.596924	-0.032227
46947		10.690122	-2.617017	-5.703926	-0.883042	4.837013	-1.857867	-1.461670	0.565674	-0.099854
46948		10.941706	-1.832418	-4.702607	-0.991000	4.819830	-1.776954	-1.473877	0.538818	-0.158691
46949		11.481798	-1.711202	-4.192989	-1.209301	4.801922	-1.660379	-1.479492	0.514160	-0.230957
46950		11.984276	-1.562208	-3.668202	-1.268637	4.729700	-1.522397	-1.485352	0.491943	-0.285400
46951		12.498902	-1.713749	-2.684137	-1.237045	4.543952	-1.373361	-1.491455	0.476318	-0.344482
46952		12.554333	-1.479484	-1.578363	-1.139374	4.311076	-1.246510	-1.483887	0.456299	-0.410156
46953		12.115672	-0.908481	-0.839337	-1.165412	4.060157	-1.106203	-1.481201	0.443115	-0.460449
46954		11.176546	0.367118	-0.301492	-1.564197	3.795405	-0.933006	-1.474121	0.434326	-0.504395
46955		9.868924	-0.320461	-2.298067	-1.855185	3.547915	-0.714615	-1.465088	0.434326	-0.546143
46956		7.420326	-0.700414	2.148804	-1.765062	3.090226	-0.531404	-1.460449	0.429932	-0.583496
46957		5.797496	-1.971859	1.805268	-1.964152	2.537739	-0.378101	-1.451660	0.432373	-0.609863
46958		4.070441	-3.139497	1.369027	-1.521089	1.794224	-0.308572	-1.442627	0.430176	-0.625244
46959		3.530631	-2.517083	3.150944	-0.814291	0.874925	-0.263809	-1.440430	0.434570	-0.631836
46960		5.032207	-0.268238	1.899935	-0.472713	0.045248	-0.152465	-1.447021	0.427979	-0.618652
46961		6.670983	1.496755	-0.378730	-0.285297	-0.605101	-0.005274	-1.449463	0.436768	-0.607910
46962		7.252605	1.933755	-1.746824	-0.514071	-1.087631	0.151969	-1.456543	0.443359	-0.590332
46963		7.120460	0.849170	-3.167695	-0.907183	-1.477942	0.298780	-1.458984	0.447754	-0.559570
46964		7.521097	-0.714703	-3.864231	-1.134812	-1.815744	0.385474	-1.464111	0.463379	-0.524902
46965		7.541362	-1.724719	-4.733441	-1.214475	-2.140235	0.414983	-1.477783	0.474365	-0.487793
46966		12.427482	-2.868914	-3.042772	-0.348050	-2.200704	0.283440	-1.480469	0.485352	-0.457031
46967		18.998969	-1.527784	6.869073	1.081104	-1.262600	0.026943	-1.482666	0.480957	-0.450439
46968		17.014524	1.333474	6.516041	0.014915	-0.595274	-0.079603	-1.484863	0.480957	-0.441650
46969		11.118190	-0.073456	1.634422	-1.019637	-0.696175	0.028703	-1.485107	0.487549	-0.428467
46970		10.076137	-3.462311	1.319572	-1.758784	-1.204802	0.130093	-1.487549	0.491943	-0.393555
46971		12.381617	-7.315483	-0.713478	-1.370079	-1.608317	0.210822	-1.492676	0.505127	-0.363037
46972		14.735249	-8.325842	-1.782643	-0.264029	-1.797727	0.301541	-1.488037	0.500732	-0.338623
46973		13.472656	-4.161507	-2.325635	0.489801	-1.872842	0.348810	-1.486084	0.509766	-0.307861
46974		11.146784	1.793491	-2.198678	0.413190	-1.901672	0.359177	-1.490967	0.518555	-0.283936
46975		9.962674	4.880624	-1.752407	-0.191884	-1.838059	0.312432	-1.486572	0.520752	-0.253174
46976		9.955381	4.012004	-1.392981	-0.767290	-1.687920	0.222041	-1.486816	0.527588	-0.224609
46977		9.163636	1.462595	-4.011801	-0.896049	-1.599890	0.103039	-1.482422	0.527588	-0.193848
46978		7.950255	-0.694477	-4.802071	-0.390025	-1.603574	0.013337	-1.482910	0.538574	-0.178711
46979		7.679215	-1.706251	-2.550065	0.086364	-1.534723	-0.029204	-1.480469	0.536377	-0.152100
46980		8.558798	-1.943401	-1.285715	0.442571	-1.475220	-0.063136	-1.478271	0.536621	-0.130127
46981		10.577420	-0.752345	-0.223621	0.567022	-1.441771	-0.046176	-1.478271	0.534180	-0.114502
46982		11.404240	-0.206106	-0.337583	0.330039	-1.365926	0.026573	-1.478516	0.543213	-0.094971
46983		11.100309	0.397172	0.229936	-0.114078	-1.307034	0.080310	-1.469482	0.541016	-0.072754
46984		10.333364	0.405351	-0.327666	-0.726727	-1.248347	0.116515	-1.469971	0.547607	-0.051025
46985		9.733401	-0.201137	-1.767159	-1.027421	-1.182227	0.096828	-1.461182	0.552246	-0.026855
46986		9.613716	-0.618181	-2.121459	-0.831280	-1.104561	0.045721	-1.458984	0.552246	-0.006836
46987		9.541093	-1.515690	-2.190926	-0.393850	-1.062461	-0.016725	-1.452393	0.554443	0.010742
46988		9.653279	-0.828092	-1.807986	0.241436	-1.055599	-0.045865	-1.447998	0.556885	0.026123
46989		10.463869	0.775643	-1.120738	0.432605	-1.007819	-0.016712	-1.450195	0.559082	0.032715
46990		10.858341	1.446979	-1.348844	0.224272	-0.912491	0.023157	-1.445801	0.559082	0.045898
46991		10.664022	0.850154	-1.313057	-0.294616	-0.798682	0.053883	-1.434570	0.559082	0.054688
46992		10.133798	-1.187759	-2.696545	-0.459799	-0.705081	0.053734	-1.439209	0.563477	0.070068
46993		9.912163	-2.094695	-2.928318	-0.168692	-0.672303	0.029560	-1.430420	0.561523	0.081055
46994		10.032875	-1.238641	-2.683716	0.128664	-0.649451	0.000640	-1.430664	0.570313	0.087646
46995		10.227968	-0.016675	-2.148225	0.273058	-0.634951	-0.005854	-1.421875	0.570313	0.092041
46996		10.179346	0.520172	-1.774289	0.302788	-0.596544	-0.006013	-1.415283	0.577148	0.102783
46997		9.911422	0.593595	-0.925856	0.227284	-0.551359	-0.019204	-1.408691	0.579590	0.098389
46998		9.671190	0.674292	-1.118530	0.149115	-0.507133	-0.023895	-1.413086	0.579346	0.109375
46999		9.463152	0.734252	-1.425818	0.060743	-0.482816	-0.000355	-1.413330	0.583984	0.111572
47000		9.810564	0.644793	-1.064704	-0.024793	-0.487686	0.013166	-1.408936	0.581787	0.124756
47001		9.948891	0.375572	-1.398234	-0.120713	-0.481442	0.021805	-1.397705	0.581787	0.129395
47002		10.024726	-0.063915	-1.144765	-0.127942	-0.474320	0.027507	-1.397705	0.581787	0.140381
47003		9.758640	-0.598941	-1.157618	-0.029567	-0.488641	0.025962	-1.393555	0.588623	0.142334
47004		9.429825	-0.591593	-0.832756	0.072946	-0.511489	0.026747	-1.393311	0.586426	0.146973
47005		9.518371	-0.051640	-0.508246	0.192580	-0.552793	0.039080	-1.382568	0.595215	0.153320
47006		9.807323	0.474959	-0.185513	0.200539	-0.596890	0.054537	-1.380371	0.597656	0.162109
47007		9.724747	0.692097	0.019176	0.139440	-0.633616	0.080769	-1.380859	0.604248	0.166260
47008		9.462076	0.614995	0.009447	0.110587	-0.673126	0.108822	-1.374023	0.604248	0.177490
47009		9.428219	0.771955	-0.006395	0.075821	-0.736966	0.132361	-1.365234	0.608887	0.192871
47010		9.539264	0.343603	-0.567407	0.012018	-0.766538	0.147997	-1.365479	0.611084	0.194824
47011		9.764468	0.103619	-1.038036	0.045995	-0.793176	0.149600	-1.363525	0.620117	0.208008
47012		9.738997	-0.081198	-1.746118	0.038506	-0.822207	0.151044	-1.352295	0.620117	0.216797
47013		9.796075	-0.348510	-1.726836	0.055212	-0.842256	0.173618	-1.345947	0.624756	0.227783
47014		9.732432	-0.600886	-1.718736	0.076099	-0.843801	0.164011	-1.343750	0.626953	0.232178
47015		9.571481	-0.296472	-1.649170	0.068410	-0.854661	0.174826	-1.339355	0.631348	0.245117
47016		9.514462	-0.398336	-1.883710	0.027443	-0.891467	0.189590	-1.333008	0.638184	0.256104
47017		9.860716	-0.204590	-1.764730	0.012034	-0.906165	0.209808	-1.333252	0.642578	0.264893
47018		10.013873	-0.274791	-2.067367	-0.030465	-0.904057	0.216802	-1.320068	0.649414	0.277832
47019		10.099781	-0.273097	-2.118988	-0.081495	-0.893879	0.219305	-1.320313	0.651611	0.288818
47020		10.201268	-0.103655	-2.617748	0.020181	-0.906800	0.219195	-1.304932	0.658447	0.297607
47021		9.965777	-0.127059	-2.489571	0.034896	-0.929835	0.222699	-1.302734	0.658447	0.310791
47022		10.039432	-0.309685	-2.243387	0.124249	-0.944792	0.236624	-1.291748	0.663086	0.321777
47023		9.899312	-0.238640	-1.951498	0.187683	-0.997836	0.247307	-1.285156	0.669678	0.337158
47024		10.008700	0.066168	-1.325595	0.208292	-1.032133	0.273876	-1.276611	0.674316	0.341553
47025		9.897481	0.405954	-1.088672	0.120213	-1.081233	0.294396	-1.274658	0.680908	0.363281
47026		9.946351	-0.305644	-1.014708	0.060561	-1.148073	0.333069	-1.259277	0.687744	0.372070
47027		9.891211	-0.544055	-0.981720	0.091116	-1.214834	0.358363	-1.255127	0.694580	0.383057
47028		9.881744	-0.869468	-1.367094	0.131272	-1.287334	0.389371	-1.241699	0.697021	0.400635
47029		10.088217	-0.905125	-1.436105	0.225035	-1.353832	0.413765	-1.235596	0.708008	0.415771
47030		10.133857	-0.507758	-1.556961	0.305323	-1.419962	0.452034	-1.208740	0.710693	0.427002
47031		10.232315	0.056744	-1.434701	0.264693	-1.477501	0.497015	-1.204834	0.724121	0.446533
47032		10.107656	0.260218	-1.205816	0.225799	-1.545200	0.547517	-1.194580	0.741943	0.459229
47033		10.272163	0.219929	-1.449410	0.169753	-1.599211	0.582462	-1.178955	0.742188	0.477051
47034		10.389899	0.095982	-1.872952	0.201691	-1.652003	0.602262	-1.156738	0.744629	0.494629
47035		10.534156	-0.122692	-2.565582	0.293703	-1.710664	0.607554	-1.141602	0.755859	0.512207
47036		10.730525	-0.640680	-2.971982	0.444765	-1.782838	0.614978	-1.124023	0.767090	0.522949
47037		11.440631	-0.477476	-2.029739	0.738856	-1.817145	0.630104	-1.111328	0.782959	0.542480
47038		10.928158	0.553926	-2.048628	0.753405	-1.852853	0.677681	-1.089600	0.796387	0.548828
47039		11.494807	1.063390	-1.237059	0.793662	-1.971512	0.711501	-1.069580	0.798828	0.571045
47040		12.635554	-0.104639	-0.010461	0.618243	-1.982736	0.726238	-1.047852	0.814697	0.586182
47041		11.654041	-0.773587	0.638073	0.672771	-2.069515	0.696534	-1.030762	0.830566	0.599121
47042		11.447183	-1.057385	1.135178	0.730640	-2.199550	0.677731	-1.001953	0.837402	0.610107
47043		12.221334	-1.102971	0.742935	0.835539	-2.316767	0.644998	-0.980469	0.855469	0.634033
47044		12.679748	-0.411218	-0.017343	0.885079	-2.401770	0.644528	-0.954102	0.869141	0.649170
47045		13.080116	0.799956	-2.484185	0.747184	-2.486997	0.720919	-0.925537	0.878418	0.662354
47046		13.808102	1.250073	0.157040	1.037777	-2.756813	0.880304	-0.892578	0.892090	0.686523
47047		16.123956	0.167124	0.954898	0.869956	-2.992126	0.981023	-0.859863	0.910156	0.703857
47048		17.464533	0.009169	0.289390	1.217625	-3.077946	0.978075	-0.824951	0.926025	0.717041
47049		17.252746	2.513097	0.600901	1.350133	-2.978113	0.963043	-0.794434	0.946533	0.727539
47050		14.925536	2.624420	-1.085653	1.158320	-2.860109	0.961035	-0.761475	0.960205	0.740723
47051		14.228991	1.171962	-2.512152	1.057197	-2.555911	0.949568	-0.721680	0.971680	0.749512
47052		12.967842	0.120925	-5.342354	0.994191	-2.240152	0.899605	-0.702148	0.985352	0.758057
47053		10.772916	-0.322876	-7.401879	0.849528	-2.192387	0.852625	-0.673828	0.999023	0.766602
47054		9.831200	-0.900921	-8.230726	0.624583	-2.113508	0.817790	-0.645020	1.005859	0.777588
47055		8.452045	-2.526880	-11.756969	0.153047	-2.184011	0.781834	-0.618408	1.006348	0.793213
47056		8.052664	-4.742609	-11.471706	0.591351	-2.128127	0.674784	-0.593994	1.013184	0.795410
47057		8.258678	-5.754955	-7.850841	1.392154	-1.770853	0.568429	-0.574951	1.035645	0.794922
47058		8.569860	-4.871863	-5.171286	2.017314	-1.442035	0.359420	-0.564453	1.053467	0.781494
47059		8.069177	-2.944163	-3.813404	2.106376	-0.850468	0.120925	-0.553955	1.071533	0.770020
47060		6.188024	-1.573098	-3.897546	1.639692	-0.347437	-0.090707	-0.558594	1.078125	0.763184
47061		4.733955	-0.867801	-4.334950	0.986578	0.123374	-0.291458	-0.565186	1.075928	0.756592
47062		3.822135	-0.930152	-6.101582	0.296556	0.569225	-0.479866	-0.585449	1.075684	0.756592
47063		3.411686	-1.880660	-7.088335	-0.269977	0.925324	-0.671737	-0.600586	1.068848	0.750000
47064		4.003822	-3.565006	-7.069052	-0.497232	1.250714	-0.829170	-0.624756	1.055176	0.752441
47065		4.689819	-4.743497	-6.027032	-0.402002	1.570768	-0.993011	-0.650879	1.039307	0.750488
47066		4.638500	-5.161203	-5.157923	-0.253484	1.905618	-1.154326	-0.688232	1.027832	0.741699
47067		3.865818	-4.802935	-5.181141	-0.138915	2.257278	-1.314221	-0.723389	1.014160	0.735107
47068		3.171425	-4.162394	-5.317784	-0.112769	2.605396	-1.473014	-0.758545	1.000244	0.717773
47069		2.852845	-3.600491	-4.922524	-0.127142	2.919187	-1.638433	-0.807129	0.984131	0.695801
47070		3.230028	-3.379486	-5.342253	-0.326739	3.236749	-1.760758	-0.853271	0.968262	0.678223
47071		3.254873	-3.619722	-6.285503	-0.370005	3.516051	-1.832700	-0.903809	0.949707	0.656494
47072		3.453204	-3.731376	-6.224592	-0.291763	3.719983	-1.881970	-0.947510	0.924805	0.623779
47073		3.530233	-3.845800	-6.094879	-0.219873	3.889802	-1.914696	-1.000000	0.899902	0.591064
47074		3.772076	-3.623583	-6.452344	-0.179582	4.103980	-1.943928	-1.050537	0.879150	0.562500
47075		3.726410	-3.156903	-6.553909	-0.117039	4.262468	-1.993799	-1.105469	0.856445	0.511963
47076		4.455088	-2.982120	-7.074566	-0.354624	4.420070	-2.037924	-1.146729	0.831543	0.466064
47077		5.450849	-2.866323	-7.500981	-0.308746	4.585671	-2.063998	-1.197021	0.808594	0.424561
47078		6.512633	-2.766204	-5.887687	-0.279615	4.699816	-2.073783	-1.245117	0.779297	0.369873
47079		7.589833	-2.963938	-5.588304	-0.395697	4.784786	-2.024321	-1.286133	0.747803	0.311035
47080		8.069520	-2.696553	-5.931489	-0.449598	4.865984	-1.967641	-1.316162	0.718506	0.256348
47081		8.791178	-2.651480	-6.335692	-0.547283	4.929061	-1.922967	-1.350830	0.691406	0.195313
47082		9.279547	-2.970339	-6.017434	-0.587334	4.965813	-1.907439	-1.385254	0.662109	0.134033
47083		9.590814	-3.219303	-6.132819	-0.599227	4.964374	-1.883145	-1.413330	0.637207	0.074951
47084		10.256094	-3.079626	-5.969250	-0.476644	4.930424	-1.831672	-1.434326	0.608154	0.002930
47085		10.913238	-2.791940	-5.518641	-0.435936	4.883528	-1.796935	-1.455566	0.581299	-0.062744
47086		11.322743	-1.880300	-5.034083	-0.467240	4.833984	-1.730782	-1.470215	0.558838	-0.124023
47087		11.576190	-1.457385	-4.218059	-0.664012	4.816487	-1.651325	-1.478271	0.534180	-0.193848
47088		11.587706	-1.544932	-4.404054	-0.780908	4.751085	-1.597551	-1.481445	0.507568	-0.259277
47089		12.222661	-2.161279	-3.977147	-0.784203	4.571598	-1.529721	-1.485107	0.487549	-0.322754
47090		12.651472	-2.108225	-3.795295	-0.575776	4.373174	-1.405529	-1.486328	0.458496	-0.388184
47091		12.034144	-1.054830	-2.900838	-0.238736	4.083311	-1.235432	-1.485596	0.445313	-0.442871
47092		11.259717	0.498511	-0.679976	-0.241729	3.766468	-1.028343	-1.478516	0.431885	-0.490967
47093		10.955163	0.958729	-1.020230	-1.149646	3.564799	-0.839361	-1.460205	0.423340	-0.532715
47094		8.629752	-0.143115	-0.363662	-1.280004	3.272886	-0.668815	-1.457764	0.418945	-0.574463
47095		6.217892	-1.935901	2.979369	-1.306808	2.704125	-0.568970	-1.448730	0.414551	-0.613770
47096		4.627831	-3.298085	1.811888	-1.078269	1.975341	-0.436645	-1.441895	0.412354	-0.629150
47097		3.703395	-2.174156	2.394139	-0.198902	1.043400	-0.351932	-1.446289	0.412354	-0.640137
47098		4.861825	0.786625	3.390483	0.156387	0.181796	-0.256926	-1.446289	0.412354	-0.640137
47099		6.880255	2.236279	1.287974	0.079734	-0.437133	-0.098716	-1.446045	0.407959	-0.631348
47100		8.003402	2.293384	-0.000443	-0.137115	-0.902789	0.097021	-1.453125	0.412354	-0.613770
47101		7.961217	1.130333	-1.091052	-0.621812	-1.285136	0.295470	-1.457764	0.421143	-0.594238
47102		7.696933	-0.650654	-2.596815	-0.928686	-1.655078	0.414519	-1.464844	0.429932	-0.565918
47103		8.312184	-1.593487	-2.848404	-0.860806	-1.954717	0.458140	-1.472168	0.443115	-0.524414
47104		8.723868	-0.851442	-4.028447	-1.017592	-2.134342	0.524519	-1.479492	0.456543	-0.493896
47105		8.583661	-0.578413	-5.374532	-1.117906	-2.219287	0.595293	-1.486572	0.469727	-0.452393
47106		14.389102	-1.691333	0.481404	-0.053944	-1.825040	0.356473	-1.486816	0.474121	-0.430420
47107		16.548244	2.046635	6.591389	0.222026	-0.809447	0.025904	-1.484619	0.471924	-0.423828
47108		11.658695	1.842435	3.374127	-0.685574	-0.357990	-0.127430	-1.484863	0.478516	-0.410645
47109		9.458836	-2.938719	1.256889	-1.240627	-0.644385	0.012530	-1.489258	0.480713	-0.399902
47110		11.656389	-6.096696	1.353185	-1.291212	-1.060203	0.161315	-1.491943	0.489746	-0.373535
47111		13.867923	-7.708575	-0.078723	-0.548580	-1.444376	0.214708	-1.491943	0.491943	-0.347168
47112		14.632933	-6.382465	0.340841	0.463237	-1.662131	0.294376	-1.489990	0.496338	-0.329590
47113		12.980116	-0.581582	0.088811	0.493756	-1.812609	0.411431	-1.485840	0.500732	-0.294434
47114		11.158687	3.501862	0.578942	-0.239171	-1.850465	0.462184	-1.490723	0.516357	-0.270752
47115		10.151035	3.639133	1.056389	-1.113320	-1.739830	0.412525	-1.484375	0.523193	-0.237793
47116		8.971007	0.969513	-2.370091	-1.538977	-1.630507	0.319214	-1.489014	0.527588	-0.200439
47117		7.219327	-1.482095	-4.618036	-1.061157	-1.617416	0.192009	-1.480225	0.531982	-0.178467
47118		6.479033	-2.449030	-4.996136	-0.286577	-1.696657	0.030789	-1.480469	0.534180	-0.149902
47119		7.769871	-1.698460	-3.035907	0.535799	-1.699973	-0.059682	-1.480469	0.531982	-0.127686
47120		9.711496	-0.540425	-1.258249	0.741188	-1.627511	-0.067426	-1.471436	0.534424	-0.105713
47121		10.648804	0.212684	-0.567927	0.539393	-1.504848	-0.052810	-1.471680	0.538818	-0.085938
47122		11.110510	1.073671	0.126416	0.218833	-1.413818	-0.023510	-1.471924	0.541016	-0.066162
47123		11.032540	1.556323	0.088029	-0.310663	-1.326504	0.059669	-1.462646	0.536621	-0.048340
47124		10.639816	1.808010	0.005094	-0.803635	-1.248541	0.136142	-1.458740	0.547852	-0.026611
47125		10.054328	1.077751	-1.378017	-1.118151	-1.203556	0.138216	-1.454346	0.550049	-0.004639
47126		9.679522	0.120439	-2.083003	-1.133775	-1.155459	0.116795	-1.445557	0.550049	0.019531
47127		9.629979	-1.014132	-1.745649	-0.846693	-1.128183	0.083597	-1.445557	0.554688	0.034912
47128		10.086436	-1.869351	-1.491505	-0.339176	-1.110124	0.037806	-1.441406	0.556885	0.056885
47129		10.271615	-0.360102	-1.993947	-0.043009	-1.049678	0.052644	-1.441162	0.554688	0.072510
47130		10.399762	0.123761	-1.876363	-0.163425	-1.008847	0.070983	-1.432373	0.559082	0.083496
47131		10.413876	-1.042952	-2.542778	-0.495851	-0.922942	0.075785	-1.423828	0.565918	0.103027
47132		9.994059	-2.512301	-3.693342	-0.425164	-0.863790	0.048547	-1.423828	0.563721	0.114258
47133		9.905403	-2.588696	-3.431812	-0.023821	-0.835658	0.030854	-1.421875	0.570313	0.129395
47134		10.137932	-1.073142	-3.001395	0.317038	-0.811315	0.029511	-1.410889	0.574951	0.133789
47135		10.462947	1.156775	-2.369088	0.328914	-0.745244	0.055227	-1.406250	0.570557	0.140625
47136		10.067743	2.019498	-2.180290	0.050555	-0.643070	0.052291	-1.406494	0.579590	0.151367
47137		9.664980	0.812039	-2.241986	-0.134186	-0.577547	0.021489	-1.402344	0.583984	0.160156
47138		9.493980	-0.748700	-2.783460	-0.071064	-0.528500	-0.001224	-1.395508	0.583984	0.164551
47139		9.624340	-0.727995	-2.683143	0.213718	-0.530736	-0.001744	-1.388672	0.579590	0.169189
47140		10.009719	-0.056749	-2.228588	0.331823	-0.518473	0.018869	-1.389160	0.588623	0.177734
47141		10.224951	0.458333	-1.986528	0.255521	-0.481133	0.030850	-1.386963	0.590820	0.179932
47142		10.255503	0.607643	-1.654925	0.113078	-0.438431	0.027330	-1.378174	0.593018	0.184326
47143		10.015366	0.499047	-1.998866	0.042081	-0.413849	0.046523	-1.375977	0.597656	0.186279
47144		9.714401	0.560423	-1.765323	0.033597	-0.400293	0.054364	-1.373779	0.599854	0.192871
47145		9.488844	0.397271	-1.635639	0.025177	-0.380504	0.060365	-1.369629	0.602051	0.192871
47146		9.337459	0.073137	-1.417653	0.010246	-0.392785	0.060978	-1.364990	0.599854	0.199463
47147		9.611986	-0.213678	-1.277366	0.082454	-0.423061	0.065779	-1.365234	0.606689	0.199463
47148		9.596423	-0.188498	-1.326027	0.071300	-0.439620	0.060938	-1.358398	0.600098	0.208496
47149		9.715892	0.034685	-1.090951	0.124411	-0.463406	0.077807	-1.354248	0.613525	0.214844
47150		9.592005	0.016035	-1.100393	0.060355	-0.481473	0.091076	-1.352051	0.613525	0.214844
47151		9.589980	-0.394098	-0.963836	0.065555	-0.518129	0.098704	-1.348145	0.624512	0.225586
47152		9.432963	0.082062	-1.023681	0.137576	-0.551609	0.113469	-1.341309	0.622559	0.229980
47153		9.360643	0.668356	-0.785939	0.135249	-0.600547	0.140709	-1.334717	0.626953	0.238770
47154		9.515982	0.741780	-0.832646	0.081298	-0.646320	0.159832	-1.332764	0.631348	0.243164
47155		9.701785	0.525960	-0.975229	0.047709	-0.682829	0.171272	-1.323975	0.633789	0.249756
47156		9.623204	0.028843	-1.275893	0.055116	-0.720913	0.182513	-1.324219	0.640381	0.256104
47157		9.741709	-0.064793	-1.444872	0.094693	-0.757569	0.189621	-1.322021	0.640381	0.269287
47158		9.882403	-0.459151	-2.010834	0.092169	-0.790424	0.192307	-1.311035	0.647217	0.284668
47159		9.948438	-0.479749	-1.948446	0.107431	-0.810828	0.196496	-1.304688	0.656250	0.284424
47160		10.011096	-0.293776	-2.028668	0.139962	-0.849956	0.215085	-1.297852	0.651855	0.297852
47161		10.186499	-0.177727	-1.901457	0.133755	-0.880286	0.233507	-1.289551	0.663086	0.302002
47162		10.323862	-0.333571	-1.778966	0.105791	-0.894925	0.253324	-1.280762	0.667480	0.319580
47163		10.296259	-0.525377	-1.930434	0.153285	-0.931044	0.271280	-1.278809	0.678711	0.325928
47164		10.289063	-0.568192	-2.010166	0.208070	-0.978646	0.282697	-1.271973	0.672119	0.337158
47165		10.391999	-0.551687	-1.867621	0.324062	-1.031076	0.301210	-1.261475	0.685547	0.350098
47166		10.304934	-0.034099	-1.681901	0.314448	-1.059891	0.328519	-1.252686	0.692383	0.363281
47167		10.175361	-0.261133	-1.647855	0.248707	-1.100119	0.370325	-1.246338	0.701416	0.369629
47168		10.351757	-0.555105	-1.833751	0.255615	-1.153000	0.398000	-1.237793	0.708008	0.380615
47169		10.534072	-0.658231	-1.807048	0.259604	-1.192089	0.425560	-1.229004	0.712646	0.400391
47170		10.303192	-0.754434	-1.683146	0.327171	-1.248122	0.448099	-1.213623	0.721680	0.406738
47171		10.241326	-0.314508	-1.855561	0.346595	-1.300979	0.478748	-1.207520	0.730713	0.422119
47172		10.117383	0.089765	-1.567196	0.319163	-1.356403	0.523258	-1.196777	0.746338	0.432617
47173		9.810108	0.274654	-1.361888	0.259252	-1.401982	0.583682	-1.181396	0.750977	0.448242
47174		9.375827	0.472528	-1.353079	0.206755	-1.456119	0.633906	-1.166016	0.755615	0.459229
47175		9.404682	0.384386	-1.404927	0.234391	-1.531390	0.671524	-1.153320	0.771240	0.480957
47176		9.627076	0.483855	-1.593688	0.291760	-1.600183	0.692206	-1.133545	0.782715	0.498291
47177		9.826498	0.173208	-1.605305	0.417723	-1.683494	0.687918	-1.118408	0.789551	0.509277
47178		10.345788	-0.281774	-1.939955	0.671832	-1.758417	0.680033	-1.098633	0.800781	0.524414
47179		10.314379	0.323439	-1.307415	0.829743	-1.814495	0.707945	-1.085693	0.812012	0.537598
47180		10.420348	0.719892	-1.527618	0.987171	-2.000650	0.738233	-1.064209	0.830078	0.548340
47181		13.002315	0.040098	0.270481	0.906648	-2.063259	0.751773	-1.040039	0.843750	0.563477
47182		12.846579	-1.275432	0.858012	0.812415	-2.096769	0.721446	-1.020996	0.864014	0.573975
47183		12.200393	-1.140751	1.606339	0.938414	-2.243580	0.702940	-0.996826	0.875244	0.589355
47184		13.050849	-0.759502	1.812978	0.983284	-2.360740	0.716990	-0.972656	0.884521	0.606934
47185		13.623129	-0.087603	1.655384	1.001329	-2.415558	0.684081	-0.946533	0.900391	0.622070
47186		13.508098	0.907660	-0.598203	0.778877	-2.449620	0.669389	-0.924561	0.911621	0.635254
47187		13.323822	1.178385	-1.600193	1.020449	-2.665049	0.755221	-0.893799	0.920898	0.652832
47188		15.210980	0.537519	0.753977	1.171874	-3.019784	0.864049	-0.863281	0.941406	0.672363
47189		17.326169	0.245602	-0.692408	1.283012	-3.193238	0.890963	-0.821533	0.957275	0.683105
47190		17.437831	2.079963	-0.504970	1.651424	-3.141103	0.903099	-0.791016	0.975586	0.693848
47191		15.940749	2.708310	-1.214402	1.354373	-3.012453	0.889265	-0.756104	0.993652	0.702393
47192		14.130434	2.097588	-3.651880	1.011536	-2.730307	0.849452	-0.729980	1.009521	0.715332
47193		12.957718	-0.090557	-5.394830	0.681658	-2.445992	0.772463	-0.703369	1.011963	0.724365
47194		11.698211	-0.945608	-6.822475	0.557369	-2.237232	0.705045	-0.674805	1.023438	0.739746
47195		10.238298	-1.312395	-8.730837	0.604494	-2.059441	0.629747	-0.652588	1.028076	0.755127
47196		8.515655	-2.230209	-10.807108	0.649316	-1.947753	0.561149	-0.628662	1.041748	0.757080
47197		7.235324	-3.587194	-10.346222	0.716699	-1.918562	0.492735	-0.608643	1.046387	0.761475
47198		6.870876	-4.569095	-9.653148	0.881869	-1.706151	0.383887	-0.588867	1.051025	0.765869
47199		6.279711	-4.639177	-9.363106	1.197092	-1.442007	0.257846	-0.582764	1.064453	0.763428
47200		6.675338	-3.674539	-6.372535	1.634880	-1.081613	0.092020	-0.576172	1.071289	0.758789
47201		6.400611	-3.068225	-5.085121	1.565295	-0.596813	-0.026715	-0.576660	1.084717	0.745361
47202		5.389136	-2.614481	-4.653022	1.317234	-0.136481	-0.151255	-0.579346	1.095703	0.736084
47203		4.707449	-2.206005	-4.391568	0.832377	0.365771	-0.298280	-0.590576	1.095703	0.733887
47204		3.833680	-2.339138	-4.994584	0.208701	0.871170	-0.466534	-0.601563	1.088867	0.731934
47205		3.106174	-3.248328	-5.336606	-0.252658	1.212957	-0.664738	-0.623535	1.079590	0.727539
47206		2.989138	-4.548238	-5.828793	-0.457353	1.504544	-0.897195	-0.651855	1.065918	0.725586
47207		3.075338	-5.221768	-5.900263	-0.336275	1.786989	-1.096189	-0.685059	1.056641	0.718994
47208		3.248167	-5.028033	-5.053366	-0.039525	2.062622	-1.265101	-0.715820	1.045410	0.708008
47209		3.317305	-4.420980	-4.592742	0.025463	2.385808	-1.414076	-0.759766	1.031494	0.694824
47210		2.912050	-4.011942	-5.210819	-0.026775	2.664734	-1.547216	-0.794922	1.017822	0.677490
47211		2.797616	-3.483814	-4.980861	-0.033413	2.889252	-1.675889	-0.843262	0.997314	0.662109
47212		3.212103	-3.412790	-5.017830	-0.218974	3.117316	-1.769770	-0.885254	0.985596	0.637939
47213		3.746685	-3.523774	-5.043962	-0.361223	3.334319	-1.825677	-0.930908	0.958496	0.614258
47214		4.242449	-3.915808	-5.362705	-0.410019	3.560839	-1.841850	-0.977051	0.940186	0.583496
47215		4.532249	-4.091559	-5.534899	-0.375651	3.769676	-1.853033	-1.027344	0.912842	0.555176
47216		4.658851	-3.817494	-6.100226	-0.290595	3.950135	-1.853017	-1.071289	0.896729	0.517822
47217		4.778152	-3.182392	-5.910920	-0.241782	4.052941	-1.863564	-1.114990	0.876465	0.478516
47218		5.407296	-2.702772	-6.239972	-0.448356	4.171632	-1.877205	-1.165283	0.851318	0.443604
47219		6.086450	-2.587456	-6.101462	-0.501042	4.305256	-1.879827	-1.208496	0.817383	0.395752
47220		6.846901	-2.569612	-5.210299	-0.736599	4.429504	-1.858217	-1.248047	0.797119	0.349609
47221		7.358067	-2.917538	-5.933754	-1.008822	4.580623	-1.820272	-1.284668	0.767822	0.301758
47222		7.587098	-3.219059	-6.361834	-1.173732	4.676658	-1.791418	-1.317139	0.742920	0.251465
47223		8.389794	-3.859758	-7.668218	-1.298866	4.754398	-1.735958	-1.351318	0.707031	0.197021
47224		8.997318	-3.778315	-6.111211	-0.873996	4.779219	-1.704031	-1.384033	0.688721	0.142090
47225		9.184640	-3.619134	-5.538610	-0.837596	4.781031	-1.668669	-1.409424	0.652832	0.079102
47226		9.716522	-3.253242	-5.958791	-0.727543	4.750097	-1.657938	-1.422119	0.635010	0.024414
47227		10.439859	-3.044780	-5.814893	-0.657267	4.712470	-1.689538	-1.447754	0.608154	-0.043457
47228		11.430047	-2.530223	-5.427505	-0.461780	4.637313	-1.695949	-1.460205	0.585693	-0.109131
47229		11.355242	-1.938638	-4.259773	-0.336284	4.539463	-1.619657	-1.479004	0.554199	-0.170166
47230		11.275449	-1.582737	-3.801632	-0.340028	4.366867	-1.569628	-1.482666	0.534180	-0.233643
47231		11.479764	-1.402369	-3.016656	-0.373197	4.182946	-1.552165	-1.481445	0.507568	-0.290283
47232		11.759897	-1.704544	-2.303695	-0.540693	4.005517	-1.542723	-1.489746	0.489746	-0.340576
47233		11.894317	-1.867182	-2.287678	-0.571339	3.830751	-1.510714	-1.488770	0.465332	-0.397217
47234		11.696721	-1.337450	-1.421885	-0.496156	3.605889	-1.356721	-1.488037	0.447510	-0.443115
47235		10.993649	-0.812878	-1.724254	-0.446554	3.358678	-1.074696	-1.485352	0.436279	-0.495605
47236		10.159190	-0.834953	-3.187660	-0.502076	3.120946	-0.754061	-1.478027	0.423096	-0.537109
47237		8.381973	-0.433966	0.877944	-0.311303	2.740510	-0.536548	-1.471191	0.418701	-0.572266
47238		7.561528	-1.248201	1.409622	-0.683973	2.349692	-0.427050	-1.453125	0.414551	-0.604980
47239		6.345944	-1.997284	1.646532	-0.616270	1.839378	-0.352261	-1.455322	0.416748	-0.620605
47240		5.281258	-1.860379	2.465025	-0.269104	1.152980	-0.252877	-1.450684	0.410156	-0.633545
47241		4.916763	-0.968202	2.163114	0.005063	0.418261	-0.127549	-1.448486	0.410156	-0.635742
47242		6.054079	0.439944	1.204154	0.220390	-0.245781	-0.009712	-1.450928	0.414551	-0.633789
47243		7.370240	1.393890	-0.012360	0.191762	-0.783268	0.114997	-1.457764	0.416748	-0.616211
47244		8.127972	1.151822	-0.515457	-0.021541	-1.246765	0.223158	-1.462402	0.421143	-0.592041
47245		8.374704	0.789980	-1.560519	-0.373962	-1.670596	0.315374	-1.469482	0.432129	-0.565918
47246		9.053050	0.976326	-1.672873	-0.585242	-2.012488	0.368087	-1.471680	0.432129	-0.532959
47247		14.449711	1.136322	1.133237	-0.226008	-1.877145	0.239611	-1.480957	0.440918	-0.506836
47248		16.588767	2.373011	5.001781	-0.270358	-1.303902	0.127261	-1.483398	0.447510	-0.484863
47249		14.129118	2.121158	4.606120	-1.369170	-0.887525	0.150573	-1.485840	0.451904	-0.467285
47250		10.514902	-1.601028	1.443167	-2.264124	-0.901585	0.280984	-1.488770	0.465332	-0.443359
47251		9.487640	-5.843840	0.066635	-2.377015	-1.191248	0.320514	-1.489258	0.476318	-0.419434
47252		10.396666	-9.795434	-2.217771	-1.695129	-1.513509	0.313308	-1.487305	0.487549	-0.384521
47253		12.260647	-10.283129	-2.806041	-0.227185	-1.749860	0.308343	-1.494141	0.489746	-0.358154
47254		12.928138	-4.002118	-3.584494	0.695230	-1.794748	0.321516	-1.494629	0.498535	-0.338623
47255		11.572796	2.372887	-2.560820	0.631779	-1.765425	0.330620	-1.483643	0.505371	-0.312256
47256		9.971540	4.729037	-1.565970	-0.098786	-1.716604	0.279972	-1.485840	0.503174	-0.285645
47257		9.738848	3.568246	-2.146242	-0.809674	-1.595307	0.189270	-1.486328	0.514160	-0.257324
47258		9.754381	-0.347953	-4.172375	-1.015076	-1.499853	0.052799	-1.490723	0.516357	-0.230957
47259		8.558252	-4.110808	-4.613570	-0.346580	-1.431836	-0.065993	-1.488770	0.522949	-0.209229
47260		8.374996	-4.573490	-3.244529	0.796645	-1.431717	-0.129235	-1.488770	0.520752	-0.191406
47261		9.630645	-1.738689	-1.288269	1.497468	-1.424311	-0.105748	-1.479736	0.518799	-0.178223
47262		11.198160	1.539804	0.042788	1.334758	-1.360106	-0.009736	-1.479980	0.520996	-0.162842
47263		11.815677	2.993554	0.825971	0.348814	-1.214292	0.084088	-1.477539	0.518799	-0.147217
47264		10.861715	1.861671	0.170050	-0.659477	-1.054978	0.119904	-1.471191	0.527588	-0.129883
47265		9.907181	-0.031765	-1.649090	-0.868255	-0.986569	0.102611	-1.468994	0.527588	-0.107666
47266		9.609394	-1.032645	-2.919483	-0.325835	-0.990998	0.082711	-1.462646	0.534424	-0.092529
47267		9.917551	-0.584983	-2.114065	0.293330	-0.973156	0.072754	-1.458252	0.536621	-0.083740
47268		10.249872	0.370357	-1.075314	0.568686	-0.906565	0.027510	-1.462891	0.538818	-0.072754
47269		10.020887	0.788831	-0.881750	0.492084	-0.850844	0.018815	-1.456543	0.547852	-0.064209
47270		10.254209	0.056147	-0.543392	0.465122	-0.852919	0.068588	-1.451904	0.545654	-0.055176
47271		10.629692	0.301703	-0.065021	0.448768	-0.833422	0.097387	-1.447754	0.552490	-0.037598
47272		10.603819	1.114642	-0.042020	0.342508	-0.784465	0.112473	-1.443359	0.554688	-0.031250
47273		10.219289	1.193596	-0.576062	0.178473	-0.757746	0.131018	-1.437012	0.561279	-0.024658
47274		10.151057	1.186849	0.762893	0.019001	-0.718479	0.133842	-1.439209	0.561279	-0.022461
47275		9.533771	1.380332	-0.818885	-0.358574	-0.609706	0.113090	-1.430664	0.568115	-0.002686
47276		9.000826	1.029658	-1.799916	-0.144949	-0.611086	0.111288	-1.428467	0.570313	-0.002686
47277		9.245407	1.026311	-0.568255	-0.154653	-0.623499	0.107333	-1.424072	0.574951	0.010254
47278		9.726230	0.643888	-1.313659	-0.116211	-0.619829	0.123769	-1.424072	0.574951	0.021484
47279		9.825620	0.554583	-0.735896	-0.135005	-0.614773	0.148735	-1.417725	0.581543	0.025635
47280		9.847035	-0.048810	-0.647198	-0.209676	-0.596115	0.155507	-1.415771	0.590576	0.031982
47281		9.429906	-0.459055	-0.703236	-0.234400	-0.607168	0.152795	-1.413574	0.590576	0.047363
47282		9.348327	0.339512	-0.236737	-0.149905	-0.655009	0.164383	-1.409180	0.592773	0.056152
47283		9.635248	1.099043	0.241371	-0.246712	-0.675798	0.190085	-1.409424	0.594971	0.069336
47284		9.640388	1.374351	0.482220	-0.380742	-0.698281	0.211522	-1.402832	0.601807	0.075928
47285		9.678906	0.842457	0.177643	-0.457181	-0.729016	0.239062	-1.400635	0.601807	0.091309
47286		9.932000	0.596357	-0.803402	-0.489271	-0.750254	0.249664	-1.387695	0.608643	0.100098
47287		10.011643	-0.122141	-1.539982	-0.494594	-0.757788	0.258195	-1.391846	0.604248	0.115479
47288		9.895636	-0.953942	-2.541485	-0.367139	-0.747192	0.249686	-1.381104	0.615479	0.126465
47289		9.782127	-0.797300	-2.636175	-0.207148	-0.748790	0.233750	-1.385742	0.619873	0.132813
47290		10.067787	-0.713892	-2.377887	-0.043683	-0.738970	0.222343	-1.368164	0.622314	0.141602
47291		10.113413	-0.185830	-2.192334	0.028402	-0.727681	0.212718	-1.368164	0.624512	0.156982
47292		10.017443	0.160149	-1.642983	0.040032	-0.727582	0.215456	-1.366211	0.633301	0.161377
47293		9.872206	-0.007628	-1.370931	0.004482	-0.725999	0.216771	-1.361816	0.635498	0.170166
47294		9.679582	-0.292347	-1.124747	-0.014524	-0.732814	0.216654	-1.353271	0.640137	0.183350
47295		9.481492	-0.562114	-1.205885	-0.079576	-0.743394	0.224334	-1.351074	0.644531	0.194092
47296		9.532287	-0.992802	-1.333832	-0.042082	-0.763846	0.238338	-1.342285	0.649170	0.198486
47297		9.736690	-0.826964	-1.573590	0.001839	-0.792183	0.246430	-1.344971	0.660156	0.211426
47298		9.712023	-0.506466	-1.879129	-0.048649	-0.813254	0.256504	-1.336182	0.658203	0.224854
47299		9.809999	-0.546851	-2.010124	-0.034397	-0.835811	0.261165	-1.333984	0.660400	0.231445
47300		9.825094	-0.596246	-2.286471	-0.030185	-0.842742	0.261815	-1.318604	0.665039	0.246826
47301		9.621977	-0.770364	-2.230093	-0.029969	-0.838377	0.273061	-1.318848	0.673828	0.257568
47302		9.434407	-1.084251	-2.706120	0.044571	-0.866045	0.264725	-1.314453	0.676270	0.268555
47303		9.834543	-1.013316	-2.349119	0.204093	-0.899935	0.267734	-1.310303	0.680664	0.270508
47304		9.866515	-0.690603	-2.220488	0.246506	-0.914362	0.269093	-1.303711	0.687500	0.279297
47305		9.884852	-0.416057	-2.042813	0.291992	-0.932987	0.277642	-1.286377	0.698730	0.294678
47306		9.812025	-0.130269	-1.925454	0.273153	-0.965542	0.292212	-1.284180	0.700928	0.307617
47307		9.860399	-0.196727	-1.658900	0.239950	-1.001057	0.319992	-1.282227	0.705322	0.312012
47308		9.820366	-0.059022	-1.149032	0.225242	-1.050384	0.345971	-1.269287	0.714355	0.325195
47309		9.937605	0.317214	-0.825057	0.148649	-1.112216	0.374147	-1.260498	0.721191	0.335938
47310		10.068563	0.428607	-0.591700	0.063810	-1.178201	0.420841	-1.249756	0.728027	0.353516
47311		9.840128	0.318986	-0.778991	-0.017947	-1.254563	0.465893	-1.240967	0.734863	0.366699
47312		9.821370	-0.048396	-0.843278	0.054192	-1.362734	0.492706	-1.227783	0.739502	0.384277
47313		9.927377	-0.177112	-0.918556	0.234182	-1.475319	0.508764	-1.210449	0.748535	0.395020
47314		10.108890	0.069903	-1.060567	0.405278	-1.588385	0.519848	-1.204102	0.761963	0.416992
47315		10.595137	-0.586287	-1.102289	0.620902	-1.719977	0.527277	-1.184326	0.768799	0.429932
47316		11.467010	-0.478141	-1.124239	0.886781	-1.810957	0.534729	-1.171631	0.782227	0.445313
47317		11.624898	0.369366	-0.615884	0.933731	-1.883481	0.571520	-1.156494	0.795898	0.460449
47318		12.075810	-0.698707	-1.192545	0.988483	-2.037775	0.604189	-1.138916	0.804932	0.477783
47319		13.419374	-1.770171	0.273773	0.894553	-2.055794	0.611302	-1.124023	0.820557	0.488525
47320		12.392961	-2.191365	0.610055	0.924794	-2.089207	0.609280	-1.097656	0.829834	0.503906
47321		11.713959	-1.527364	1.346377	0.885651	-2.177092	0.643285	-1.080322	0.843262	0.519043
47322		12.476619	-0.998722	1.611974	0.748808	-2.234286	0.690015	-1.056152	0.854736	0.538818
47323		13.083513	-1.018215	1.682579	0.632979	-2.254252	0.700772	-1.034424	0.868408	0.551758
47324		13.426378	-0.576638	1.000240	0.448507	-2.306136	0.679879	-1.010010	0.873047	0.571777
47325		13.690820	0.085444	-1.198683	0.371668	-2.312466	0.702397	-0.988281	0.884277	0.597900
47326		13.100519	0.434141	-0.628937	0.759053	-2.569173	0.696099	-0.957520	0.897949	0.606689
47327		15.106223	-0.838645	0.467961	1.086138	-2.909070	0.631103	-0.929199	0.911621	0.630615
47328		15.831077	-0.372264	-1.208608	1.729435	-3.045742	0.616570	-0.898438	0.927490	0.639404
47329		15.393381	1.801670	1.392999	2.172052	-3.092367	0.556956	-0.863525	0.947998	0.641357
47330		13.746013	1.645492	-3.098975	1.743392	-2.896430	0.435255	-0.835205	0.961670	0.656494
47331		11.972315	0.239203	-5.581915	1.705721	-2.844644	0.305276	-0.818115	0.984131	0.656006
47332		11.582511	-1.450801	-6.565870	1.675855	-2.727515	0.192726	-0.791748	0.990967	0.664795
47333		11.089485	-1.964511	-8.002511	1.639629	-2.638810	0.167832	-0.767578	1.002441	0.673584
47334		9.976694	-2.035177	-9.053355	1.720775	-2.495873	0.107206	-0.745850	1.013916	0.673340
47335		8.155404	-2.314724	-10.316630	1.594550	-2.410690	0.024590	-0.728271	1.022949	0.675537
47336		7.756087	-3.510709	-10.355925	1.843035	-2.284214	-0.092830	-0.706299	1.034180	0.673096
47337		7.470839	-3.465259	-9.060800	2.098494	-1.967239	-0.180076	-0.693604	1.050049	0.666260
47338		6.763117	-2.714634	-8.381726	2.192855	-1.694515	-0.312543	-0.689697	1.063477	0.656982
47339		7.109657	-1.999530	-6.395542	2.204833	-1.265522	-0.450030	-0.685547	1.072266	0.645752
47340		6.836173	-1.088995	-5.193648	1.874719	-0.770657	-0.504528	-0.681396	1.076904	0.634766
47341		5.893480	-0.550825	-4.950923	1.411400	-0.283702	-0.567132	-0.694824	1.078857	0.623535
47342		4.300632	-0.347671	-4.639768	0.909090	0.180945	-0.649420	-0.699219	1.078857	0.614746
47343		3.250147	-0.661467	-4.748937	0.278607	0.618815	-0.792876	-0.718994	1.072021	0.612549
47344		2.861543	-1.876482	-4.849026	-0.087076	0.962408	-0.964810	-0.732178	1.065186	0.610352
47345		3.146485	-3.084019	-5.890892	-0.562744	1.305452	-1.130817	-0.758057	1.042725	0.613037
47346		3.198544	-3.969080	-6.516996	-0.493567	1.630334	-1.262036	-0.791260	1.035645	0.604248
47347		3.849771	-3.744368	-5.222505	-0.335714	1.895994	-1.354718	-0.817627	1.024170	0.597656
47348		4.669569	-3.509221	-4.605215	-0.298327	2.171649	-1.403948	-0.845459	0.999512	0.582764
47349		5.028244	-2.928995	-4.331169	-0.257452	2.436456	-1.432128	-0.885254	0.987793	0.571777
47350		5.014295	-2.283976	-4.085620	-0.355774	2.671897	-1.460169	-0.915527	0.965332	0.554443
47351		4.800940	-2.000323	-3.917478	-0.549913	2.871675	-1.482861	-0.957275	0.949219	0.534912
47352		4.586127	-1.890115	-4.233895	-0.772082	3.055499	-1.502983	-0.992188	0.931152	0.510986
47353		4.565538	-1.831031	-4.383228	-0.956172	3.220848	-1.514237	-1.017822	0.901855	0.491699
47354		4.655890	-1.831335	-4.425809	-1.108301	3.389657	-1.519293	-1.064209	0.885742	0.469727
47355		4.837507	-1.936315	-4.353143	-1.309349	3.524411	-1.532999	-1.096436	0.856445	0.452637
47356		5.233354	-2.366648	-5.563847	-1.526332	3.715862	-1.537489	-1.139893	0.831543	0.422119
47357		5.693869	-3.053477	-8.217277	-1.734843	3.921928	-1.530788	-1.176758	0.804443	0.394043
47358		5.917023	-3.485345	-7.999141	-1.273541	4.044517	-1.544435	-1.204834	0.779785	0.354736
47359		6.573641	-3.963115	-6.158187	-1.069667	4.138604	-1.570009	-1.243896	0.754883	0.311035
47360		7.262104	-4.522269	-6.334583	-0.893064	4.269550	-1.592744	-1.269775	0.727783	0.269775
47361		7.674873	-4.197199	-6.009480	-0.580216	4.374235	-1.632078	-1.304443	0.702881	0.219482
47362		8.080986	-3.855728	-6.079990	-0.593217	4.501030	-1.672619	-1.336914	0.678223	0.162598
47363		8.782546	-3.484410	-6.358300	-0.415162	4.579037	-1.659461	-1.367432	0.660156	0.105469
47364		9.308641	-2.912493	-4.271109	-0.233638	4.544191	-1.623221	-1.382080	0.637695	0.044189
47365		10.410465	-2.525228	-3.489409	-0.388831	4.494783	-1.565361	-1.400879	0.610840	-0.010254
47366		10.623675	-1.480028	-3.468720	-0.633941	4.472827	-1.481415	-1.413818	0.599609	-0.062988
47367		10.930459	-1.253756	-2.979369	-1.051539	4.453598	-1.423944	-1.432861	0.570313	-0.121826
47368		11.162497	-1.892154	-3.066559	-1.491709	4.446460	-1.387017	-1.441162	0.554688	-0.178711
47369		11.668493	-2.446342	-2.794443	-1.673962	4.368692	-1.321945	-1.444824	0.534668	-0.237793
47370		11.885643	-2.520274	-2.761994	-1.772946	4.236215	-1.176204	-1.446045	0.514648	-0.283691
47371		12.036081	-3.117250	-2.684744	-1.553148	4.043732	-1.038969	-1.450195	0.507813	-0.329834
47372		11.831611	-2.567411	-1.663050	-1.155060	3.828203	-0.884942	-1.447510	0.494629	-0.377930
47373		10.995530	-1.344427	-0.875865	-0.957242	3.594215	-0.764444	-1.442627	0.488037	-0.426025
47374		10.053076	-0.312598	-0.283488	-1.007299	3.279192	-0.659189	-1.442383	0.479004	-0.467773
47375		9.490826	0.234248	0.028799	-1.133103	2.942327	-0.578274	-1.426758	0.477051	-0.500732
47376		8.974453	0.508769	0.223936	-1.314487	2.621731	-0.500194	-1.426514	0.472656	-0.527100
47377		9.027712	0.058951	-0.502097	-1.577096	2.307223	-0.400593	-1.424316	0.474854	-0.551270
47378		8.093617	-0.762634	-1.484012	-1.489345	1.982788	-0.271850	-1.417480	0.470459	-0.571045
47379		7.242731	-0.995243	0.738521	-1.197993	1.508364	-0.190209	-1.410889	0.477295	-0.586670
47380		6.926283	-1.245073	-0.361821	-1.263633	1.038151	-0.110888	-1.411133	0.481689	-0.586670
47381		6.554717	-1.217344	-1.201429	-0.970164	0.468929	-0.071401	-1.411377	0.483887	-0.586670
47382		6.646712	-0.454966	-0.971378	-0.765671	-0.097917	-0.021131	-1.404541	0.486328	-0.586670
47383		6.471699	0.642595	-2.313109	-0.747324	-0.594334	0.097571	-1.414063	0.497314	-0.564941
47384		6.872315	1.726516	-2.565792	-0.716057	-1.070255	0.241408	-1.411865	0.499512	-0.547363
47385		6.812828	2.397164	-2.927475	-1.067850	-1.455192	0.371909	-1.421387	0.514893	-0.521484
47386		5.925291	1.791230	-4.443615	-1.522020	-1.897008	0.470285	-1.426270	0.526123	-0.482178
47387		11.115561	-1.623123	-2.563540	-0.967528	-2.147122	0.368941	-1.428955	0.537109	-0.451416
47388		20.426005	-2.885868	9.954476	0.642406	-1.135225	0.088488	-1.428955	0.532715	-0.440430
47389		19.783993	0.412951	11.170477	-0.576184	-0.313074	0.038231	-1.431396	0.539307	-0.433838
47390		10.113565	1.152902	2.680260	-2.143782	-0.430271	0.156853	-1.436279	0.548096	-0.409912
47391		7.811463	-5.710473	0.083454	-2.684971	-1.110847	0.279672	-1.436768	0.563721	-0.379395
47392		10.256403	-9.834650	-1.051356	-2.269835	-1.591107	0.288544	-1.437256	0.570313	-0.337891
47393		13.846910	-11.796590	-2.822837	-0.726945	-1.804609	0.312018	-1.435303	0.579346	-0.313721
47394		13.022349	-6.509062	-3.704811	0.583787	-1.871033	0.402237	-1.426514	0.581543	-0.285156
47395		9.835512	1.436514	-3.335613	0.866734	-1.998780	0.361129	-1.435547	0.588135	-0.267822
47396		9.174141	6.233901	-0.883025	0.198525	-2.152555	0.194860	-1.431396	0.590576	-0.228027
47397		11.375973	4.495974	-1.628263	-0.737816	-2.049018	0.021282	-1.429443	0.597168	-0.197266
47398		10.965932	-0.388361	-4.079354	-0.877615	-1.863393	0.000879	-1.427246	0.601563	-0.159912
47399		8.164298	-2.654118	-4.185032	-0.146328	-1.730111	0.009749	-1.431641	0.599365	-0.146729
47400		7.465364	-1.051219	-2.425125	0.405186	-1.667124	-0.036128	-1.425293	0.603760	-0.129150
47401		9.352453	0.931143	-0.764990	0.267717	-1.544007	-0.037180	-1.418457	0.601807	-0.109375
47402		11.082209	0.582605	-1.447018	-0.419456	-1.404712	0.017146	-1.420654	0.601563	-0.078369
47403		11.301771	-0.553550	-1.096646	-0.856865	-1.292780	0.073450	-1.414307	0.610596	-0.054443
47404		10.955445	-0.220757	-0.873632	-1.223713	-1.160925	0.119558	-1.412109	0.608398	-0.030029
47405		10.679722	0.200744	-1.173173	-1.536426	-1.061571	0.141180	-1.403076	0.608398	-0.008057
47406		9.992319	-0.352318	-1.774321	-1.506896	-0.994176	0.077364	-1.398682	0.608643	0.014160
47407		9.310231	-1.042777	-2.140741	-1.175548	-0.940506	0.005351	-1.398682	0.608643	0.031738
47408		9.077796	-0.669768	-2.157665	-0.693708	-0.939506	-0.017591	-1.389893	0.608643	0.047119
47409		9.477289	0.140889	-1.495950	-0.441965	-0.925216	-0.010805	-1.387451	0.606445	0.062744
47410		10.435957	0.288388	-0.756949	-0.525020	-0.872981	-0.000200	-1.383301	0.615479	0.080078
47411		10.623450	-0.566787	-0.843417	-0.724877	-0.827930	0.005110	-1.381104	0.615479	0.091064
47412		10.089133	-1.152843	-1.620376	-0.750506	-0.783915	0.019731	-1.381104	0.615479	0.108643
47413		9.743608	-0.871814	-1.474456	-0.576266	-0.780604	0.045595	-1.372070	0.611084	0.122070
47414		9.820593	-0.571376	-1.529315	-0.576758	-0.755967	0.056068	-1.369873	0.613281	0.133057
47415		9.649055	-0.616300	-1.560493	-0.442880	-0.731352	0.038918	-1.363281	0.613281	0.146484
47416		9.475237	-0.250033	-1.187741	-0.280086	-0.752640	0.021482	-1.363525	0.622314	0.161621
47417		9.522161	0.457605	-0.783075	-0.183712	-0.761620	0.028743	-1.359131	0.620117	0.168213
47418		9.499461	0.534437	-0.792722	-0.240343	-0.747604	0.035503	-1.352295	0.620117	0.181641
47419		9.493033	0.016886	-0.826766	-0.296508	-0.718998	0.039873	-1.350098	0.617920	0.190430
47420		9.497785	-0.583906	-1.860896	-0.318555	-0.677958	0.052351	-1.347900	0.617920	0.199219
47421		9.378404	-1.436570	-2.171645	-0.275175	-0.681725	0.043862	-1.336670	0.618164	0.210205
47422		9.679727	-1.805954	-2.477062	-0.134857	-0.703413	0.023006	-1.332520	0.624756	0.214600
47423		10.049450	-0.952310	-2.029558	0.000490	-0.723327	0.006772	-1.325928	0.626953	0.229980
47424		10.214030	0.065354	-1.941477	0.019660	-0.691849	0.013089	-1.328369	0.633789	0.234131
47425		9.914102	0.223224	-2.163470	-0.084143	-0.668942	0.015580	-1.319336	0.631592	0.243164
47426		9.452525	-0.863046	-2.280737	-0.136016	-0.642929	0.004665	-1.312744	0.631592	0.256348
47427		9.195802	-1.551025	-1.961757	0.007891	-0.661976	-0.011799	-1.310547	0.636230	0.260742
47428		9.322006	-0.912967	-1.410852	0.163990	-0.689830	0.000331	-1.303955	0.636230	0.267334
47429		9.677303	-0.041209	-0.999755	0.235082	-0.732682	0.013427	-1.304443	0.647217	0.273682
47430		9.941456	0.791354	-0.702369	0.182727	-0.745190	0.044858	-1.292969	0.638428	0.282715
47431		9.926776	0.877138	-0.874439	0.090192	-0.755368	0.063154	-1.293213	0.645264	0.291504
47432		9.523341	0.162526	-1.720656	-0.023067	-0.772481	0.076948	-1.291016	0.647461	0.302490
47433		9.637648	-0.274482	-2.295125	0.048788	-0.805255	0.081547	-1.280029	0.652100	0.311279
47434		9.732591	-0.530647	-2.561753	0.053653	-0.822608	0.078350	-1.273438	0.654297	0.315674
47435		9.824260	-0.767348	-2.402892	0.101148	-0.831214	0.074345	-1.273682	0.658691	0.333008
47436		9.793789	-0.794008	-2.455537	0.162078	-0.848694	0.064851	-1.264648	0.656738	0.339844
47437		9.746296	-0.760106	-2.416676	0.230244	-0.859116	0.062259	-1.260254	0.658936	0.344238
47438		9.481476	-0.781340	-2.229752	0.288972	-0.876230	0.057706	-1.253906	0.667969	0.359375
47439		9.513802	-0.466134	-1.825501	0.401432	-0.926703	0.065725	-1.245117	0.670166	0.361572
47440		9.900235	0.012680	-1.136695	0.398023	-0.967977	0.099892	-1.240967	0.679199	0.374756
47441		10.128136	-0.048223	-1.091934	0.293045	-1.013377	0.133008	-1.227539	0.677002	0.383545
47442		10.554912	-0.024228	-1.461033	0.269115	-1.058828	0.141922	-1.225586	0.686035	0.396484
47443		10.741300	-0.271097	-2.188271	0.264701	-1.112885	0.147073	-1.214844	0.695068	0.407471
47444		10.650629	-0.523796	-2.287002	0.319572	-1.160963	0.168295	-1.210449	0.697266	0.420654
47445		10.386597	-0.755796	-2.413044	0.337952	-1.194087	0.206792	-1.199463	0.699707	0.427246
47446		10.192359	-0.943249	-2.850493	0.361094	-1.227237	0.240206	-1.195557	0.710693	0.442383
47447		10.578532	-0.505843	-2.779510	0.449148	-1.257404	0.277567	-1.182373	0.715332	0.448975
47448		10.514082	-0.105866	-2.771713	0.470359	-1.291103	0.298497	-1.168945	0.717773	0.464355
47449		10.661876	0.104439	-2.161438	0.524666	-1.338543	0.337107	-1.155762	0.724609	0.470947
47450		10.381193	0.057696	-1.707262	0.601611	-1.400113	0.374168	-1.142822	0.735840	0.481689
47451		10.237749	-0.073275	-1.585053	0.676884	-1.480329	0.386042	-1.129883	0.742676	0.494873
47452		10.587322	-0.071485	-1.507075	0.855079	-1.558567	0.403308	-1.121582	0.760498	0.501221
47453		10.855699	1.470623	-0.356257	1.045386	-1.622277	0.460071	-1.097656	0.774170	0.514160
47454		11.140590	2.491438	-0.882177	0.930280	-1.764862	0.507511	-1.091309	0.785400	0.531494
47455		13.201894	0.626669	-0.073055	0.652879	-1.809028	0.529084	-1.071777	0.796631	0.542480
47456		12.322378	-1.096997	-0.145521	0.660511	-1.857778	0.499635	-1.047363	0.801270	0.549072
47457		11.813463	-0.718184	0.821889	0.886193	-2.026657	0.497463	-1.027588	0.810547	0.568848
47458		12.670073	-0.060753	1.479362	0.848614	-2.140876	0.527281	-1.012207	0.815186	0.584229
47459		13.596025	-0.586409	2.647635	0.828465	-2.278366	0.482739	-0.994873	0.828613	0.603760
47460		14.156833	-1.215822	2.539230	0.616500	-2.353326	0.453372	-0.970947	0.842285	0.616699
47461		13.812704	-1.722002	1.770503	0.716574	-2.410224	0.452343	-0.946777	0.849121	0.636475
47462		13.718503	-1.447119	-0.779682	0.995971	-2.431608	0.457850	-0.925049	0.862793	0.649658
47463		13.464783	-0.901888	0.960065	1.715152	-2.637005	0.531799	-0.892090	0.880859	0.658203
47464		13.748384	0.021185	0.705243	1.795071	-2.890802	0.598450	-0.866211	0.901123	0.668945
47465		14.552396	1.077283	-1.126615	2.068446	-3.150364	0.646897	-0.838379	0.928223	0.679443
47466		15.750351	2.207042	-0.955875	2.120698	-3.191216	0.682048	-0.805664	0.948730	0.685547
47467		15.389032	2.160952	-3.148714	1.923584	-3.038931	0.681319	-0.774902	0.962402	0.683350
47468		14.188656	1.211168	-4.042817	1.672557	-2.823732	0.643816	-0.737549	0.973877	0.694336
47469		12.693929	-0.610555	-5.981204	1.462136	-2.599277	0.591622	-0.716064	0.996338	0.702637
47470		11.313062	-1.242390	-7.191555	1.548548	-2.393541	0.562341	-0.687500	1.007813	0.708984
47471		9.854005	-1.328351	-8.113807	1.524134	-2.208766	0.490488	-0.667969	1.023438	0.704346
47472		8.222992	-2.186500	-9.664829	1.425680	-2.168808	0.344581	-0.648193	1.028320	0.710938
47473		7.445705	-3.112062	-10.631436	1.473076	-2.050652	0.174207	-0.633301	1.048340	0.710693
47474		7.561192	-3.762426	-9.586613	1.753529	-1.875065	0.050920	-0.620117	1.055176	0.701660
47475		8.024633	-3.622472	-6.181465	2.060122	-1.560347	-0.081536	-0.609619	1.066406	0.697021
47476		8.173075	-2.387025	-3.678023	1.953537	-1.060073	-0.200452	-0.603516	1.084229	0.685547
47477		7.448688	-1.724423	-3.686392	1.484103	-0.592832	-0.298292	-0.605957	1.088867	0.674561
47478		6.311344	-0.975903	-3.097256	0.899370	-0.102321	-0.413659	-0.612793	1.090820	0.672119
47479		5.052473	-1.105038	-3.647555	0.064183	0.375228	-0.561622	-0.627930	1.081787	0.672363
47480		4.214641	-2.256297	-5.151093	-0.619568	0.792076	-0.710682	-0.647705	1.070557	0.679199
47481		3.665488	-3.858277	-6.216865	-0.918595	1.115571	-0.851045	-0.671143	1.048096	0.686279
47482		3.763973	-4.970530	-6.327606	-0.863287	1.405800	-0.972295	-0.693115	1.036621	0.688477
47483		3.901558	-5.154388	-5.375156	-0.575264	1.692932	-1.105756	-0.719238	1.020752	0.684326
47484		3.682887	-4.995218	-4.883163	-0.373170	2.023717	-1.244479	-0.752197	1.007080	0.675781
47485		2.790603	-4.279956	-4.496492	-0.233212	2.371370	-1.396541	-0.793945	0.993164	0.662598
47486		2.190824	-3.294638	-3.779470	-0.244908	2.673513	-1.567357	-0.824707	0.977295	0.649658
47487		2.236505	-2.692494	-4.106810	-0.520953	2.969120	-1.719810	-0.875000	0.952393	0.630127
47488		2.984398	-2.823144	-5.369360	-0.792255	3.265546	-1.819480	-0.912109	0.931885	0.608398
47489		4.018077	-2.844025	-5.285336	-0.646838	3.507982	-1.862248	-0.966797	0.909180	0.582031
47490		5.028933	-3.009431	-4.193019	-0.630794	3.704099	-1.855206	-1.008545	0.893066	0.558105
47491		5.747717	-3.348278	-4.545463	-0.625697	3.919310	-1.822870	-1.052246	0.870361	0.522949
47492		5.795217	-3.198210	-4.959217	-0.608685	4.111484	-1.797884	-1.100342	0.843018	0.490479
47493		5.644112	-3.035123	-5.062658	-0.675462	4.250192	-1.799821	-1.143799	0.815918	0.446777
47494		5.959403	-3.214242	-5.365634	-0.893156	4.413446	-1.804181	-1.189453	0.786621	0.409668
47495		6.482848	-3.544832	-5.579348	-0.932412	4.587217	-1.812948	-1.224121	0.759521	0.359619
47496		7.197405	-3.877191	-5.185312	-0.998347	4.753438	-1.823010	-1.267578	0.732178	0.313721
47497		7.691099	-4.113114	-5.851607	-1.116515	4.931800	-1.815013	-1.306641	0.702881	0.256836
47498		8.168474	-4.430422	-6.436140	-1.217038	5.074115	-1.805013	-1.336670	0.676025	0.204590
47499		8.679112	-5.017371	-7.515980	-1.166098	5.213702	-1.767889	-1.369141	0.651123	0.141113
47500		9.286881	-4.792449	-6.102077	-0.917600	5.317975	-1.703865	-1.387939	0.619873	0.073242
47501		9.822673	-4.882369	-6.163435	-0.843950	5.403290	-1.640535	-1.411621	0.599609	0.009766
47502		9.930728	-3.963890	-6.122691	-0.524466	5.424705	-1.577484	-1.433105	0.579346	-0.073486
47503		10.764223	-2.321832	-4.642399	-0.322656	5.337628	-1.509917	-1.443115	0.550293	-0.136719
47504		12.209125	-0.987952	-3.548308	-0.421554	5.269464	-1.406559	-1.451172	0.530029	-0.219971
47505		13.010902	-0.032971	-3.272320	-0.756436	5.199454	-1.221140	-1.450684	0.516846	-0.279297
47506		13.134653	0.109059	-2.759464	-1.071743	5.047120	-1.046276	-1.454590	0.505615	-0.349609
47507		13.138784	-0.288311	-1.571977	-1.385240	4.795137	-0.911236	-1.447510	0.492432	-0.406494
47508		12.695597	-1.447908	-1.420593	-1.533840	4.501941	-0.808097	-1.442627	0.488037	-0.465820
47509		12.135779	-2.059600	-0.877324	-1.583701	4.056946	-0.682166	-1.428955	0.477051	-0.507324
47510		10.192959	-2.515821	-3.627250	-1.749273	3.639125	-0.532263	-1.422363	0.483887	-0.547119
47511		5.767695	-2.320881	1.362102	-0.694877	2.898255	-0.376736	-1.413330	0.477295	-0.584473
47512		2.542807	-2.415246	2.123830	-0.439679	1.974798	-0.291018	-1.413086	0.472656	-0.606201
47513		2.094926	0.502787	2.915920	0.305202	0.815024	-0.194608	-1.406250	0.468506	-0.608398
47514		4.279446	4.109656	3.147081	0.238335	-0.218692	-0.043169	-1.410889	0.472900	-0.608398
47515		6.484270	5.470147	0.832451	-0.364183	-0.968950	0.168364	-1.413330	0.479492	-0.582275
47516		7.439670	4.659748	-2.233489	-0.906978	-1.530733	0.368332	-1.420410	0.488281	-0.553711
47517		6.645341	3.288612	-4.208735	-1.351922	-2.046684	0.568928	-1.425293	0.501465	-0.514404
47518		8.133397	0.713939	-4.418589	-1.457025	-2.489477	0.635024	-1.432617	0.517090	-0.475342
47519		16.542384	-1.920582	1.728614	-0.236578	-2.050260	0.298461	-1.437256	0.517090	-0.446533
47520		18.924634	-0.376187	7.863206	-0.184128	-1.168895	0.058798	-1.444092	0.523682	-0.437988
47521		13.459477	0.139916	2.357224	-1.427876	-0.833866	0.074113	-1.442139	0.530273	-0.411865
47522		9.483651	-1.722428	-1.732185	-2.276813	-1.093616	0.178828	-1.449463	0.541260	-0.385742
47523		9.514240	-7.152794	-3.462331	-2.502643	-1.433651	0.242884	-1.442871	0.543701	-0.348145
47524		11.764632	-11.821722	-4.720605	-1.518087	-1.628576	0.224986	-1.449951	0.554688	-0.311035
47525		13.519979	-11.707293	-5.306302	0.098219	-1.726201	0.310844	-1.450195	0.563477	-0.291504
47526		12.634490	-4.346290	-6.108360	1.216280	-1.885757	0.335376	-1.446045	0.565918	-0.271729
47527		11.937081	4.466130	-3.814758	1.228878	-2.078367	0.239858	-1.445801	0.563477	-0.249512
47528		13.259751	7.182185	-1.155843	-0.013168	-2.048211	0.143825	-1.439453	0.572510	-0.214355
47529		12.730002	2.739636	-2.071514	-1.249648	-1.798022	0.135897	-1.441895	0.574707	-0.185791
47530		8.687384	-1.761954	-4.705912	-1.040931	-1.566930	0.132316	-1.439941	0.579102	-0.157227
47531		5.898821	-3.017955	-4.276002	0.004790	-1.508016	0.032178	-1.435547	0.583740	-0.135498
47532		7.309082	-1.111025	-2.432630	0.850612	-1.470514	-0.043991	-1.433350	0.581543	-0.126465
47533		10.535791	1.704078	-0.636909	0.707893	-1.371237	-0.037923	-1.424561	0.588379	-0.100098
47534		11.800230	2.157674	-0.886682	-0.067040	-1.213106	0.023403	-1.424805	0.592773	-0.089355
47535		11.261284	0.574292	-0.830001	-0.680285	-1.075906	0.064506	-1.422363	0.588379	-0.069336
47536		10.191681	-1.150460	-0.946070	-1.031837	-0.974863	0.093801	-1.415771	0.592773	-0.045166
47537		9.620502	-2.477262	-1.749477	-0.800598	-0.948626	0.051043	-1.416016	0.597168	-0.027588
47538		9.806873	-2.161309	-1.388572	-0.313759	-0.941909	0.016613	-1.416016	0.594971	-0.014404
47539		10.236085	-0.501970	-0.797162	-0.179491	-0.908123	0.014486	-1.407227	0.599609	-0.001221
47540		9.990927	-0.078037	-1.215805	-0.173326	-0.865573	-0.008688	-1.402832	0.599609	0.009766
47541		9.780987	-0.281659	-0.606494	-0.248404	-0.856278	-0.011317	-1.398438	0.599609	0.027588
47542		9.850161	-0.880988	-1.015399	-0.178303	-0.836841	-0.003518	-1.387207	0.597656	0.031982
47543		9.992350	-0.892778	-0.871475	-0.106940	-0.825502	0.005151	-1.389404	0.597412	0.049561
47544		9.770292	-1.173414	-1.197000	-0.136942	-0.789547	-0.000938	-1.385254	0.606445	0.049561
47545		9.444060	-1.290818	-1.503774	-0.115303	-0.754018	-0.010532	-1.380615	0.599854	0.065186
47546		9.310085	-0.878076	-1.353403	0.004456	-0.721702	-0.015109	-1.383057	0.606445	0.080322
47547		9.709220	-0.143804	-1.251547	0.051897	-0.707144	-0.031611	-1.374023	0.606445	0.080322
47548		10.064090	0.542258	-1.010990	0.015089	-0.689458	-0.023576	-1.365234	0.606689	0.095947
47549		10.038666	0.110109	-0.892778	-0.022607	-0.673892	-0.024847	-1.367676	0.615479	0.102295
47550		9.723797	-0.056261	-0.730775	0.033442	-0.664225	-0.034600	-1.358643	0.611084	0.111084
47551		9.538276	0.105982	-0.922175	0.067910	-0.641171	-0.024285	-1.358887	0.615723	0.119873
47552		9.632299	0.147276	-0.707688	0.117207	-0.683613	-0.022597	-1.356689	0.615723	0.124268
47553		10.012525	0.632555	-0.264911	0.138579	-0.711862	-0.009357	-1.343262	0.615723	0.133301
47554		10.235989	0.845306	-0.084128	0.071609	-0.706350	0.025439	-1.345703	0.620117	0.141846
47555		10.070145	1.104989	-0.321194	-0.058662	-0.689753	0.063266	-1.339111	0.624756	0.155029
47556		9.724536	1.399702	-0.962787	-0.255498	-0.676932	0.086640	-1.334717	0.624756	0.161621
47557		9.700051	0.376897	-1.659755	-0.398623	-0.659172	0.110329	-1.332520	0.624756	0.177002
47558		9.800797	-0.244059	-1.830255	-0.427189	-0.654232	0.107689	-1.330322	0.626953	0.181396
47559		9.838177	-0.770406	-2.169102	-0.351107	-0.656933	0.105532	-1.325928	0.627197	0.192627
47560		10.077120	-0.806523	-1.861169	-0.243578	-0.672724	0.103812	-1.317383	0.635986	0.198975
47561		9.949325	-0.868750	-1.964595	-0.170524	-0.684393	0.096047	-1.314941	0.631592	0.205811
47562		9.705528	-0.457956	-1.491862	-0.077387	-0.700828	0.094566	-1.312744	0.631592	0.223389
47563		9.269914	-0.162984	-1.481890	-0.049469	-0.720304	0.098557	-1.304443	0.647461	0.225098
47564		9.189992	0.229548	-0.749994	-0.045553	-0.748019	0.109564	-1.302002	0.645020	0.234131
47565		9.370686	0.194981	-0.559196	-0.151329	-0.770858	0.128573	-1.290771	0.640869	0.254150
47566		9.639186	-0.185490	-0.930769	-0.178144	-0.790150	0.156542	-1.295410	0.647461	0.253906
47567		9.764368	-0.443130	-1.701063	-0.248393	-0.802842	0.161888	-1.286865	0.651855	0.267090
47568		9.844893	-1.294180	-2.412927	-0.185830	-0.837013	0.155636	-1.275391	0.647705	0.280518
47569		9.920020	-1.255300	-2.560126	-0.048463	-0.855805	0.150795	-1.271240	0.654297	0.293457
47570		9.732417	-0.583891	-2.523099	0.025494	-0.865520	0.163918	-1.264404	0.649902	0.300293
47571		9.764889	-0.152925	-2.316769	0.088486	-0.886041	0.181392	-1.260498	0.663330	0.308838
47572		9.799664	0.254963	-2.125963	0.098712	-0.911899	0.191008	-1.251953	0.674561	0.312988
47573		9.873557	0.461641	-1.690304	0.108402	-0.928093	0.198812	-1.247314	0.670166	0.326416
47574		9.706691	0.469431	-1.692684	0.157046	-0.962931	0.206415	-1.240723	0.674805	0.337402
47575		9.729228	0.218763	-1.594721	0.221914	-1.027159	0.213667	-1.232178	0.681396	0.359131
47576		10.085897	-0.179423	-1.703575	0.280662	-1.077707	0.228661	-1.230225	0.688232	0.354736
47577		10.155232	-0.613315	-2.188106	0.316150	-1.125553	0.245449	-1.217041	0.695068	0.367676
47578		10.490253	-1.092165	-2.390275	0.426101	-1.180160	0.265253	-1.203857	0.699463	0.385254
47579		10.653737	-0.800225	-2.364549	0.470474	-1.214228	0.287593	-1.197510	0.704102	0.396240
47580		10.558298	-0.926212	-2.251911	0.499953	-1.237720	0.309318	-1.181885	0.706543	0.405273
47581		10.324671	-0.634971	-2.131188	0.496770	-1.284222	0.330758	-1.178223	0.724365	0.417969
47582		10.162474	-0.203312	-1.434495	0.446537	-1.329810	0.400116	-1.164795	0.726807	0.428955
47583		9.995346	-0.033878	-1.154483	0.401430	-1.382666	0.465160	-1.156250	0.735596	0.439941
47584		9.957838	0.093850	-0.971119	0.365556	-1.457783	0.514508	-1.140869	0.742432	0.457275
47585		10.017833	0.331050	-0.904969	0.405161	-1.549284	0.549748	-1.123535	0.751709	0.468262
47586		10.091042	0.646274	-0.911498	0.465197	-1.642316	0.578439	-1.110352	0.760742	0.483643
47587		10.517638	0.734373	-0.848838	0.538179	-1.708589	0.610609	-1.097656	0.774170	0.494385
47588		10.423106	1.265375	-0.405038	0.662570	-1.809403	0.656875	-1.073486	0.787842	0.509521
47589		11.263873	1.638283	-0.665932	0.631934	-1.984141	0.705531	-1.060547	0.794678	0.529297
47590		13.435472	0.077311	0.273828	0.396776	-2.022505	0.703655	-1.043213	0.805908	0.549072
47591		12.590801	-1.872196	-0.092246	0.370345	-2.088323	0.667999	-1.014404	0.815186	0.566406
47592		12.288493	-1.858105	0.632613	0.500277	-2.226557	0.666580	-0.997070	0.826416	0.579590
47593		12.943438	-1.968429	0.938324	0.571716	-2.337886	0.692102	-0.979492	0.835449	0.603760
47594		13.479611	-2.505297	1.140950	0.685655	-2.396763	0.695351	-0.953613	0.855713	0.614258
47595		13.835641	-2.246818	0.235633	0.729603	-2.422188	0.681098	-0.922852	0.864990	0.629639
47596		13.979685	-1.002093	-2.381937	0.877268	-2.448109	0.738482	-0.901123	0.878662	0.642822
47597		14.275731	-0.471696	1.003846	1.496269	-2.699572	0.862421	-0.868164	0.896729	0.655762
47598		15.306948	-0.007025	0.526451	1.500252	-2.927755	0.942907	-0.835693	0.919434	0.668457
47599		15.735087	1.087179	-1.123803	1.837376	-3.066164	1.016796	-0.796387	0.939697	0.674805
47600		15.729172	3.600376	-0.045066	1.887189	-3.097591	1.036673	-0.765869	0.960205	0.681152
47601		15.067096	3.277339	-1.851217	1.603839	-2.942175	0.978567	-0.730957	0.980469	0.685303
47602		13.645658	2.065939	-2.553942	1.499353	-2.626723	0.921642	-0.705078	0.998779	0.693848
47603		12.234723	0.669303	-5.127379	1.324968	-2.264533	0.878070	-0.676758	1.016846	0.695801
47604		10.428184	0.055732	-7.125223	1.280504	-2.116325	0.814825	-0.655029	1.030273	0.702148
47605		9.767776	-0.079180	-7.581962	1.021270	-1.990832	0.779303	-0.628418	1.039551	0.704346
47606		7.983604	-0.342282	-9.877201	0.545393	-1.919795	0.717826	-0.608398	1.039795	0.719727
47607		6.484791	-2.506648	-13.174951	0.000481	-2.025609	0.632046	-0.590332	1.035400	0.737549
47608		7.709111	-4.802237	-9.741181	0.588658	-1.771962	0.515859	-0.566406	1.046875	0.739746
47609		8.214747	-4.915540	-6.108219	1.145929	-1.434356	0.369331	-0.557861	1.055908	0.737305
47610		8.748180	-3.355503	-3.418541	1.607673	-0.903618	0.106941	-0.551758	1.071533	0.734863
47611		7.289107	-2.116523	-3.157099	1.201018	-0.299853	-0.144873	-0.558594	1.075928	0.717041
47612		5.639324	-1.156458	-3.390604	0.473051	0.178829	-0.345027	-0.565186	1.071289	0.721436
47613		4.906437	-1.287550	-5.523584	-0.215861	0.630456	-0.516586	-0.578369	1.069092	0.723633
47614		3.646328	-2.028253	-7.499315	-0.636215	1.030879	-0.627913	-0.602295	1.051025	0.730469
47615		3.598018	-3.163893	-7.057733	-0.749324	1.254450	-0.734430	-0.617188	1.037354	0.735107
47616		4.448844	-4.248491	-5.585163	-0.693786	1.519859	-0.853952	-0.647949	1.023682	0.733154
47617		5.175734	-5.054319	-4.876444	-0.605068	1.842307	-0.985508	-0.676514	1.014648	0.724365
47618		4.744470	-5.150053	-4.941594	-0.417533	2.205791	-1.139779	-0.709717	1.003174	0.724609
47619		3.831520	-4.490854	-3.946200	-0.280324	2.548265	-1.303597	-0.753906	0.991455	0.713623
47620		3.459901	-3.711642	-3.070537	-0.361912	2.934110	-1.462158	-0.795410	0.970947	0.698242
47621		3.307292	-3.615875	-4.546806	-0.770876	3.280756	-1.590623	-0.843506	0.948242	0.683105
47622		3.545457	-4.028508	-5.776048	-0.869904	3.562200	-1.682947	-0.891602	0.923096	0.663818
47623		4.084373	-4.320002	-5.557141	-0.727683	3.788593	-1.752774	-0.937744	0.905029	0.635254
47624		4.503754	-4.755989	-5.828820	-0.619809	4.051472	-1.771178	-0.992432	0.879883	0.606934
47625		4.513966	-4.901992	-6.188104	-0.398025	4.299515	-1.785765	-1.043213	0.861572	0.567383
47626		4.405212	-4.606338	-5.997952	-0.162583	4.521468	-1.826005	-1.086914	0.843262	0.523438
47627		4.481419	-4.013290	-5.498144	-0.104266	4.725592	-1.889438	-1.139404	0.813721	0.473389
47628		5.222544	-3.788798	-7.529349	-0.341043	4.943120	-1.929937	-1.189697	0.788818	0.418457
47629		5.899390	-3.222934	-7.316663	-0.058374	5.082954	-1.950081	-1.226807	0.770508	0.359131
47630		7.236222	-3.031825	-5.590761	-0.151309	5.151926	-1.935139	-1.272217	0.736816	0.298096
47631		8.160188	-3.539681	-6.418397	-0.188086	5.223969	-1.892835	-1.311523	0.716309	0.234375
47632		8.886299	-3.323537	-5.904149	-0.081970	5.227161	-1.867771	-1.348633	0.691406	0.168701
47633		9.692921	-3.592299	-5.761131	-0.223219	5.237276	-1.903215	-1.376221	0.662109	0.098877
47634		10.258878	-3.559973	-6.188659	-0.305242	5.255553	-1.945989	-1.401855	0.633057	0.033203
47635		10.991492	-3.213516	-5.794411	-0.288741	5.223468	-1.931690	-1.423340	0.612793	-0.039063
47636		11.828500	-2.846446	-5.124660	-0.308043	5.156764	-1.887644	-1.435303	0.576904	-0.106445
47637		12.336811	-1.664475	-4.752200	-0.422584	5.087456	-1.739811	-1.447754	0.554688	-0.176514
47638		12.389462	-1.538784	-4.159743	-0.574951	4.994340	-1.568682	-1.455811	0.534424	-0.242188
47639		12.351200	-1.388604	-3.199382	-0.596342	4.807826	-1.396619	-1.454834	0.507813	-0.303223
47640		12.137947	-0.704316	-2.552263	-0.562458	4.578309	-1.196438	-1.458740	0.499023	-0.364746
47641		11.204296	0.911079	-0.838325	-0.723737	4.185643	-0.980657	-1.456055	0.483398	-0.423828
47642		10.467603	1.511796	0.509662	-1.342249	3.806850	-0.777373	-1.446777	0.479004	-0.469971
47643		10.218015	-0.346640	-3.502670	-2.347046	3.613654	-0.577876	-1.437744	0.474609	-0.507324
47644		7.378936	-2.004331	1.331584	-1.668051	3.110712	-0.402045	-1.431152	0.479248	-0.544922
47645		5.641094	-3.561278	2.203721	-1.886662	2.442224	-0.267748	-1.426758	0.481445	-0.571289
47646		3.696000	-3.684528	0.652515	-1.205367	1.558360	-0.184687	-1.413574	0.486084	-0.577881
47647		3.228096	-1.282119	3.108583	-0.457451	0.538948	-0.126474	-1.420166	0.481689	-0.577881
47648		4.856095	0.973936	1.700973	-0.400470	-0.292449	0.005810	-1.422607	0.486084	-0.569092
47649		6.499375	2.492436	-0.541442	-0.420522	-0.910002	0.187813	-1.429443	0.492676	-0.547363
47650		7.179251	2.522417	-1.887125	-0.744688	-1.369843	0.359397	-1.431885	0.499268	-0.523193
47651		6.815299	1.680737	-3.340462	-1.194818	-1.805984	0.512320	-1.432373	0.510254	-0.486084
47652		7.837792	-0.388829	-4.061121	-1.362160	-2.258821	0.547627	-1.439941	0.528076	-0.455811
47653		15.129349	-2.305512	0.324351	-0.281554	-2.105222	0.265022	-1.448730	0.523438	-0.427002
47654		18.107867	-2.662701	6.575792	0.466468	-1.346768	0.018530	-1.453125	0.525635	-0.411621
47655		14.400487	-1.819056	4.037958	-0.105388	-1.091261	0.000467	-1.453369	0.527832	-0.391846
47656		10.390272	1.008910	0.403156	-0.545513	-1.329815	0.086510	-1.455811	0.534668	-0.367920
47657		9.783631	-0.545895	-0.540825	-1.148368	-1.713036	0.135823	-1.460449	0.539063	-0.330566
47658		11.348944	-4.966890	-2.194985	-1.078819	-1.917710	0.160299	-1.456543	0.550049	-0.297852
47659		12.902948	-6.353182	-3.285315	-0.513513	-1.946143	0.238823	-1.454102	0.547852	-0.271240
47660		11.854731	-3.692536	-4.961200	-0.178241	-1.887626	0.299398	-1.458984	0.556885	-0.240723
47661		10.636870	-0.411496	-4.566024	-0.289658	-1.866551	0.245195	-1.458984	0.559082	-0.211914
47662		10.599018	0.602376	-3.688147	-0.741381	-1.837540	0.133514	-1.452393	0.559082	-0.185547
47663		11.048342	-0.983844	-5.031115	-1.056972	-1.864924	-0.003768	-1.448242	0.565674	-0.143799
47664		11.047350	-3.668403	-5.420091	-0.579510	-1.796505	-0.072668	-1.455078	0.567871	-0.115234
47665		9.701584	-3.482472	-4.321886	0.341102	-1.667607	-0.105621	-1.446045	0.565674	-0.095215
47666		8.401220	-0.622858	-2.158687	0.827243	-1.555643	-0.132821	-1.439453	0.570313	-0.077881
47667		8.823830	1.385854	-1.189574	0.800099	-1.437999	-0.122578	-1.437256	0.568115	-0.057861
47668		9.920437	1.925742	-0.383563	0.388147	-1.324893	-0.103976	-1.432617	0.565918	-0.046875
47669		10.321378	1.658627	-0.593309	-0.087801	-1.218867	-0.075575	-1.430664	0.570313	-0.024902
47670		9.992255	0.622821	-0.957316	-0.542772	-1.142730	-0.033259	-1.428467	0.574951	-0.005127
47671		9.688088	-0.704656	-1.487726	-0.703196	-1.091444	-0.023698	-1.421631	0.565918	0.012695
47672		9.601495	-1.392505	-1.549383	-0.477516	-1.069393	-0.056608	-1.419678	0.572754	0.028076
47673		9.904075	-1.018119	-0.953927	-0.083425	-1.075832	-0.086662	-1.414795	0.566162	0.041504
47674		10.122654	0.517962	-1.029033	0.176644	-1.058958	-0.067888	-1.408447	0.572754	0.056885
47675		10.347797	2.009135	-0.689714	0.130329	-1.022445	-0.033621	-1.406494	0.579590	0.072021
47676		10.486393	1.914786	-1.117293	-0.210761	-0.952354	0.002895	-1.397217	0.570801	0.087646
47677		10.365902	0.389776	-1.976614	-0.407079	-0.874716	0.015761	-1.397705	0.579590	0.098633
47678		9.681161	-1.292698	-2.929305	-0.353428	-0.823427	-0.004549	-1.395508	0.581787	0.114014
47679		9.246760	-2.304258	-2.844567	-0.065973	-0.830777	-0.043191	-1.393311	0.581787	0.120605
47680		9.824465	-2.153825	-2.565006	0.169852	-0.839077	-0.049375	-1.384277	0.584229	0.129395
47681		10.607257	-0.558510	-2.026175	0.293967	-0.809915	-0.048146	-1.375488	0.584229	0.140381
47682		10.868793	0.312533	-1.578005	0.124224	-0.734159	-0.040140	-1.371094	0.584229	0.151367
47683		10.220643	-0.281866	-2.489275	0.002093	-0.648033	-0.045421	-1.366699	0.588867	0.164551
47684		9.811480	-0.577227	-2.746276	0.215267	-0.618629	-0.044866	-1.362305	0.586670	0.160156
47685		9.957958	-0.152046	-3.129413	0.418372	-0.579500	-0.040272	-1.355469	0.584473	0.166992
47686		10.204419	0.227851	-2.754248	0.586279	-0.551008	-0.036145	-1.357910	0.593262	0.168945
47687		10.271461	0.410829	-2.462528	0.604019	-0.514238	-0.037351	-1.353760	0.597900	0.175537
47688		10.206412	0.363347	-1.830115	0.629486	-0.487644	-0.024817	-1.346924	0.595703	0.175537
47689		9.936143	1.071231	-1.125389	0.572790	-0.474446	0.002631	-1.347412	0.606934	0.173096
47690		9.990579	1.807780	0.501658	0.274750	-0.416348	0.039468	-1.343262	0.613525	0.177246
47691		9.676786	1.463893	-0.701123	-0.029643	-0.396153	0.060800	-1.334229	0.613525	0.184082
47692		9.283968	1.073791	-0.493435	-0.035917	-0.422414	0.086397	-1.334229	0.611328	0.186279
47693		9.186596	0.641611	-0.191886	-0.053936	-0.489437	0.108996	-1.329834	0.611572	0.197266
47694		9.377100	-0.191072	-0.434047	0.016520	-0.546039	0.127074	-1.332031	0.615967	0.201660
47695		9.412954	-0.017237	-0.216462	0.100606	-0.591185	0.141193	-1.321289	0.625000	0.210205
47696		9.291446	0.328134	-0.628906	0.113419	-0.645804	0.161910	-1.316895	0.627197	0.214600
47697		9.495565	0.470610	-0.657843	0.092981	-0.685202	0.186611	-1.314941	0.631592	0.221191
47698		9.687945	0.258338	-1.233346	0.000952	-0.713334	0.201118	-1.306152	0.636230	0.229980
47699		9.899572	-0.481075	-1.657512	-0.022079	-0.741440	0.212317	-1.299561	0.640625	0.240723
47700		9.923295	-1.078568	-2.119809	0.053940	-0.780845	0.220643	-1.295410	0.645264	0.249512
47701		9.857867	-0.775076	-2.074654	0.124392	-0.800380	0.230625	-1.286621	0.647461	0.256104
47702		9.815090	-0.779883	-2.350563	0.120974	-0.816473	0.249203	-1.282227	0.652100	0.262695
47703		9.932668	-0.459772	-2.119944	0.203132	-0.826597	0.261422	-1.273926	0.663330	0.271240
47704		9.872924	0.084127	-1.804483	0.179438	-0.822631	0.281495	-1.271729	0.665527	0.284424
47705		9.773458	0.357211	-1.651569	0.191966	-0.839410	0.302556	-1.262939	0.672363	0.286621
47706		9.889112	0.869794	-1.266211	0.107177	-0.833101	0.322077	-1.258789	0.678955	0.301758
47707		9.933135	0.500321	-2.176987	0.023906	-0.852793	0.322194	-1.250000	0.681396	0.303955
47708		9.816194	0.050933	-1.952604	0.061285	-0.893718	0.336840	-1.239014	0.683594	0.326172
47709		9.914524	-0.028129	-2.050324	0.128503	-0.954317	0.363077	-1.237305	0.697021	0.334473
47710		9.920402	0.002806	-1.854785	0.197915	-0.998863	0.387911	-1.226318	0.701660	0.343262
47711		10.043565	0.008721	-1.491183	0.190308	-1.060142	0.411737	-1.217773	0.710449	0.354248
47712		10.198047	0.399090	-0.980742	0.250122	-1.135225	0.452148	-1.207031	0.719482	0.362793
47713		10.074631	-0.186712	-0.570586	0.198547	-1.205242	0.492425	-1.197998	0.721924	0.378174
47714		9.977926	-0.420470	-0.333669	0.265211	-1.301987	0.510824	-1.189453	0.728760	0.393555
47715		9.832151	-0.045780	-0.085168	0.268177	-1.394640	0.553081	-1.172119	0.744385	0.404297
47716		9.847977	-0.654775	-0.530020	0.249689	-1.492971	0.608260	-1.163330	0.746826	0.417480
47717		9.860014	-0.705493	-0.479629	0.268009	-1.569457	0.642894	-1.150391	0.753662	0.432861
47718		9.524771	-0.471692	-1.417438	0.133224	-1.627278	0.683789	-1.130859	0.769287	0.447998
47719		9.673976	-0.689654	-1.720933	0.116713	-1.706881	0.717261	-1.120361	0.782715	0.469727
47720		10.142314	-0.859489	-2.436987	0.053351	-1.758442	0.745800	-1.102783	0.789551	0.489502
47721		10.517183	-0.959886	-2.608848	0.037026	-1.786877	0.750455	-1.083252	0.803223	0.506836
47722		10.616315	-1.743802	-2.892072	0.173207	-1.854386	0.725086	-1.061035	0.805664	0.529053
47723		10.821293	-1.766938	-2.534540	0.342948	-1.919432	0.732862	-1.045898	0.816895	0.541992
47724		10.824259	-1.922589	-2.774817	0.545026	-1.980671	0.747996	-1.028564	0.830566	0.552734
47725		11.550381	-0.166944	-0.916712	0.885328	-1.987917	0.778063	-1.004395	0.844238	0.563721
47726		10.974699	0.787554	-1.028656	0.774114	-2.120014	0.833682	-0.982910	0.859863	0.583252
47727		13.048924	-0.288387	0.225923	0.769950	-2.226520	0.831034	-0.951904	0.871338	0.594238
47728		13.519402	-0.818112	1.694866	0.587380	-2.206325	0.807496	-0.927979	0.882813	0.607178
47729		11.979426	-0.602201	1.084534	0.825461	-2.373645	0.788265	-0.910645	0.896240	0.626709
47730		13.741509	0.012635	0.222191	0.705200	-2.463763	0.808580	-0.880127	0.912109	0.642090
47731		14.753532	0.478835	-1.233043	0.907848	-2.590836	0.852206	-0.851563	0.923584	0.657227
47732		16.084881	1.061557	2.046753	1.025917	-2.940607	0.936003	-0.816162	0.935059	0.677002
47733		17.581686	1.003050	0.465950	0.887959	-3.149949	0.977036	-0.776855	0.953369	0.685791
47734		18.590932	2.959294	0.355052	1.208368	-3.202270	1.024259	-0.743896	0.969238	0.703125
47735		17.748941	5.054278	-1.432176	0.895323	-3.035404	1.019747	-0.711182	0.982910	0.727295
47736		15.879669	3.890331	-4.224621	0.616215	-2.896863	1.009894	-0.671387	0.992432	0.733887
47737		14.718490	1.257981	-5.799657	0.454827	-2.682401	0.977977	-0.646973	0.999268	0.751465
47738		13.372086	0.288177	-6.956689	0.323133	-2.418033	0.906781	-0.618408	1.008545	0.766846
47739		11.217719	0.444899	-7.031386	0.339448	-2.141330	0.830402	-0.594238	1.019775	0.779785
47740		9.502438	-0.841213	-10.275284	-0.050586	-1.971356	0.753730	-0.569580	1.017822	0.793213
47741		7.761999	-3.289263	-13.317107	0.010416	-1.928169	0.629700	-0.545166	1.020264	0.804443
47742		7.714884	-5.213755	-11.094523	0.600395	-1.769960	0.511212	-0.527588	1.024902	0.819824
47743		7.427352	-5.939989	-9.239165	1.181994	-1.594734	0.425112	-0.510254	1.036377	0.806396
47744		7.934810	-4.860870	-5.593206	2.026233	-1.225119	0.264998	-0.506348	1.052002	0.797119
47745		7.253776	-3.658478	-4.371152	2.099452	-0.670382	0.125696	-0.500488	1.072021	0.783447
47746		5.562357	-2.409105	-4.129826	1.741528	-0.210719	-0.008354	-0.507568	1.085449	0.767822
47747		4.113569	-1.398063	-3.297035	1.232737	0.311524	-0.195393	-0.518799	1.087402	0.760986
47748		2.755277	-1.547992	-3.823702	0.271406	0.737802	-0.413515	-0.529785	1.080566	0.763428
47749		2.680479	-2.733903	-4.759354	-0.255380	1.086719	-0.644977	-0.549805	1.078125	0.760986
47750		2.855392	-3.890046	-5.154553	-0.522399	1.450960	-0.846704	-0.578125	1.062256	0.770020
47751		3.129615	-5.054234	-5.368779	-0.548112	1.754114	-1.017838	-0.613525	1.052979	0.765625
