// General information: 
//  MT Manager version: 2021.0.0 
//  XDA version: 2021.0.0 build 5908 rev 109668 built on 2021-04-19
// Device information: 
//  DeviceId: 00B44076
//  ProductCode: MTW2-3A7G6
//  Firmware Version: 4.4.0
//  Hardware Version: 1.1.0
// Device settings: 
//  Filter Profile: human(46.1)
//  Option Flags: Orientation Smoother Disabled, Position/Velocity Smoother Disabled, Continuous Zero Rotation Update Disabled, AHS Disabled, ICC Disabled
// Coordinate system: ENU
PacketCounter	SampleTimeFine	Acc_X	Acc_Y	Acc_Z	Gyr_X	Gyr_Y	Gyr_Z	Mag_X	Mag_Y	Mag_Z
46467		12.574815	-1.753437	1.042651	3.252774	-0.918394	0.298400	-1.440674	0.419678	-0.311768
46468		8.646640	1.473766	-3.576040	3.992419	-1.229170	0.199444	-1.440430	0.412598	-0.309326
46469		8.334148	5.857057	-3.585097	3.873974	-1.693836	0.398992	-1.447021	0.405518	-0.298340
46470		13.551795	14.367629	-0.420651	2.435743	-1.785940	0.644520	-1.454102	0.412354	-0.281250
46471		14.513503	12.997674	-0.491947	-0.381899	-1.682566	0.845602	-1.452393	0.431152	-0.249023
46472		12.242650	2.623758	-1.262672	-2.070515	-1.619380	0.763840	-1.448730	0.449951	-0.214600
46473		11.009772	-6.337453	-0.883777	-2.011749	-1.579695	0.608779	-1.451416	0.459229	-0.177979
46474		10.182172	-12.091451	-1.870179	-1.081710	-1.686993	0.630652	-1.454346	0.480225	-0.141357
46475		9.921009	-13.082510	-2.169261	0.326368	-1.843807	0.769018	-1.445801	0.489502	-0.124268
46476		9.497420	-7.802575	-1.646607	1.376512	-1.763173	0.787431	-1.441895	0.508301	-0.104980
46477		8.494195	-1.626571	-1.786579	1.500019	-1.554080	0.632531	-1.444092	0.508057	-0.092041
46478		8.209104	1.679520	-1.279907	0.687213	-1.355469	0.528962	-1.430908	0.519775	-0.070313
46479		9.619700	2.887880	-1.080570	-0.419197	-1.248457	0.566695	-1.438232	0.533936	-0.051270
46480		10.905005	1.644247	-1.504570	-1.223040	-1.162592	0.599827	-1.438965	0.550293	-0.027588
46481		11.289253	0.416038	-2.491419	-1.293489	-1.122613	0.551355	-1.427979	0.557129	-0.001465
46482		10.696627	-0.441152	-2.919547	-0.968320	-1.085583	0.471088	-1.421631	0.568848	0.022217
46483		10.355650	-0.304686	-2.235218	-0.514289	-1.054994	0.446673	-1.417480	0.580566	0.039307
46484		10.174902	-0.655958	-1.476562	-0.147409	-1.034631	0.480284	-1.415527	0.589844	0.056641
46485		10.532366	-0.645391	-0.857357	-0.006873	-1.003770	0.476311	-1.413574	0.596924	0.069580
46486		10.429820	-0.752893	-0.214367	-0.217775	-0.911067	0.434328	-1.406982	0.604004	0.088867
46487		9.926877	-1.565977	-0.261304	-0.608995	-0.808854	0.394749	-1.403076	0.617920	0.099609
46488		9.542637	-2.929646	-0.849663	-0.728756	-0.737780	0.365355	-1.396240	0.622559	0.119141
46489		9.433898	-3.007539	-1.440240	-0.701328	-0.680653	0.351884	-1.392090	0.627441	0.134277
46490		9.563263	-2.444862	-1.922183	-0.637037	-0.610421	0.330440	-1.389893	0.632080	0.145020
46491		9.685750	-1.994985	-1.843064	-0.420174	-0.556937	0.307405	-1.385742	0.643799	0.153564
46492		10.082220	-1.269230	-1.487549	-0.320782	-0.506623	0.278962	-1.383789	0.648438	0.162109
46493		10.291433	-0.809192	-1.340410	-0.459472	-0.470547	0.272937	-1.379150	0.650635	0.177490
46494		10.099343	-0.634565	-1.512623	-0.547413	-0.428719	0.277490	-1.379639	0.662354	0.187988
46495		9.988331	-0.302555	-1.296449	-0.704396	-0.389370	0.268831	-1.373047	0.664795	0.200928
46496		9.929048	-0.494699	-1.003906	-0.944786	-0.369390	0.265269	-1.371094	0.676514	0.216064
46497		10.142406	-1.422634	-0.631654	-1.069353	-0.374636	0.246525	-1.366455	0.674072	0.224854
46498		10.157281	-2.048635	-0.125025	-1.057065	-0.391026	0.239856	-1.364502	0.678711	0.242188
46499		9.578502	-2.625747	0.243439	-0.886683	-0.428922	0.222354	-1.362549	0.687988	0.248535
46500		9.210222	-2.415863	0.650393	-0.715104	-0.491661	0.197443	-1.362549	0.685791	0.261475
46501		9.301991	-2.413742	0.679541	-0.592042	-0.555773	0.171739	-1.353516	0.690430	0.274658
46502		9.353491	-1.929408	0.406318	-0.418926	-0.613509	0.164405	-1.348877	0.690430	0.287842
46503		9.210340	-1.513667	0.097470	-0.381423	-0.655447	0.148094	-1.344727	0.697510	0.300781
46504		9.090344	-1.007219	-0.055823	-0.409749	-0.714309	0.140699	-1.342529	0.697266	0.315918
46505		9.283789	-1.243513	-0.470782	-0.565222	-0.756808	0.136256	-1.338135	0.702148	0.328857
46506		9.487094	-1.662719	-0.792033	-0.596034	-0.783866	0.140773	-1.333740	0.706787	0.346191
46507		9.473446	-1.691860	-1.006514	-0.531649	-0.803803	0.143723	-1.331299	0.706543	0.367920
46508		9.364777	-1.718265	-1.181780	-0.549723	-0.820894	0.132021	-1.326660	0.704346	0.385498
46509		9.597733	-1.778466	-1.530474	-0.536408	-0.836564	0.119372	-1.324707	0.708984	0.400635
46510		9.688401	-1.511026	-1.605413	-0.498614	-0.850212	0.114219	-1.322510	0.711182	0.413574
46511		9.592841	-1.518978	-1.739897	-0.525457	-0.857224	0.106691	-1.315674	0.713623	0.431152
46512		9.756656	-1.720923	-1.863850	-0.496798	-0.861713	0.085805	-1.309082	0.715820	0.446289
46513		9.600854	-1.696877	-2.034597	-0.403913	-0.879648	0.091555	-1.307129	0.722900	0.461426
46514		9.351626	-1.690497	-2.068144	-0.454514	-0.878636	0.090992	-1.300293	0.722900	0.479004
46515		9.420666	-1.571367	-2.346489	-0.435759	-0.887961	0.076525	-1.290771	0.715820	0.492188
46516		9.558128	-1.610658	-2.679536	-0.375559	-0.888642	0.065325	-1.291016	0.722900	0.513916
46517		9.587275	-1.541949	-2.843382	-0.387391	-0.876807	0.067153	-1.281982	0.720459	0.527100
46518		9.813971	-1.381337	-3.024082	-0.383886	-0.869615	0.065011	-1.279785	0.722900	0.546631
46519		9.910609	-1.041770	-2.948679	-0.416120	-0.849744	0.059657	-1.277588	0.727539	0.557373
46520		9.836709	-1.015685	-2.870356	-0.533225	-0.835895	0.054990	-1.265869	0.720459	0.574951
46521		9.804313	-1.073267	-2.678811	-0.589163	-0.835682	0.044029	-1.263916	0.725098	0.592285
46522		9.726689	-1.076794	-2.673331	-0.529866	-0.837779	0.027228	-1.256836	0.718018	0.614258
46523		9.515391	-1.327903	-2.530875	-0.489565	-0.840732	0.009728	-1.254395	0.715576	0.625244
46524		9.490720	-1.209887	-2.348138	-0.446196	-0.862797	-0.012695	-1.252441	0.722656	0.642578
46525		9.535069	-1.458951	-2.421529	-0.405153	-0.899346	-0.029061	-1.243164	0.720215	0.655762
46526		9.488920	-1.608696	-2.317684	-0.352167	-0.933237	-0.037810	-1.243164	0.715576	0.675537
46527		9.579085	-1.457936	-2.279215	-0.296361	-0.980702	-0.040389	-1.231689	0.718018	0.692871
46528		9.761639	-1.021796	-2.158053	-0.241781	-1.024516	-0.042457	-1.225342	0.724854	0.710205
46529		9.686374	-0.595593	-2.014101	-0.322321	-1.066696	-0.050826	-1.222412	0.713135	0.725830
46530		9.536741	-0.730402	-2.064533	-0.330612	-1.138731	-0.059179	-1.210938	0.710938	0.747803
46531		9.545286	-1.170994	-2.138722	-0.275079	-1.199884	-0.084689	-1.204346	0.715576	0.762939
46532		9.491060	-1.688774	-2.128623	0.037815	-1.281011	-0.107872	-1.192871	0.710693	0.782715
46533		9.583578	-1.674817	-2.063967	0.239416	-1.358747	-0.109508	-1.192871	0.713135	0.787109
46534		9.598722	-2.111955	-2.412383	0.408802	-1.448976	-0.097993	-1.175049	0.722412	0.808838
46535		10.051346	-2.004893	-2.481206	0.502515	-1.497958	-0.084584	-1.168457	0.724854	0.828369
46536		10.105857	-1.798387	-2.587341	0.371145	-1.520642	-0.074716	-1.152588	0.727051	0.845947
46537		9.735806	-1.862709	-2.670158	0.313451	-1.578180	-0.071062	-1.141113	0.727051	0.861328
46538		9.903007	-1.710853	-2.942940	0.296513	-1.621327	-0.060784	-1.127686	0.729492	0.880859
46539		10.088346	-1.083220	-2.768586	0.196949	-1.658278	-0.058254	-1.109375	0.731934	0.900635
46540		10.248575	-0.838976	-2.820227	0.180466	-1.718126	-0.052907	-1.100586	0.738770	0.917969
46541		11.027064	0.285971	-1.570993	-0.100616	-1.751137	-0.039461	-1.082275	0.731934	0.937988
46542		11.173535	-0.340519	-1.807519	-0.316017	-1.798793	-0.047113	-1.068604	0.731934	0.966309
46543		11.610945	-1.595825	-1.271119	-0.374945	-1.966040	-0.058985	-1.047852	0.724854	0.999512
46544		13.539966	-0.842325	-0.206372	-0.300619	-2.020216	-0.021606	-1.031982	0.724854	1.017090
46545		12.839186	-0.640685	0.914513	-0.127527	-2.101158	0.053045	-1.006836	0.722412	1.047852
46546		12.944784	-0.220325	0.982679	0.135680	-2.259436	0.128294	-0.981934	0.729492	1.067383
46547		14.652523	0.421358	0.571667	0.376149	-2.357259	0.213362	-0.957275	0.734131	1.089355
46548		15.192147	0.436239	-0.561324	0.675160	-2.340118	0.283953	-0.930176	0.741211	1.109131
46549		13.957571	2.586058	2.414388	0.336814	-2.467352	0.332045	-0.895996	0.743652	1.133301
46550		14.242947	2.868348	1.932432	-0.551636	-2.786220	0.424650	-0.864014	0.736572	1.170898
46551		14.018403	-4.037143	-0.579924	-0.982269	-3.048545	0.445664	-0.822754	0.727295	1.204102
46552		14.425027	-5.197097	-1.061529	-0.634003	-3.195787	0.481142	-0.786133	0.724854	1.243896
46553		14.174792	-5.190497	-1.649601	-0.371769	-3.224809	0.473833	-0.742920	0.722656	1.270508
46554		13.760836	-4.927200	-2.813352	-0.100510	-3.157881	0.394268	-0.702393	0.732178	1.299072
46555		12.987675	-4.068759	-4.166782	-0.177312	-2.989381	0.307903	-0.660889	0.722656	1.312744
46556		11.899561	-4.688369	-6.133648	0.033433	-2.784825	0.226361	-0.626953	0.725098	1.330566
46557		10.719643	-3.876639	-6.531203	0.486482	-2.538327	0.177784	-0.588379	0.729980	1.348145
46558		9.242631	-4.427780	-7.775303	0.917460	-2.401916	0.137420	-0.559570	0.746338	1.352539
46559		7.418987	-3.876304	-8.577558	1.045026	-2.278649	0.201189	-0.525391	0.744141	1.353027
46560		7.018104	-2.588844	-7.863337	0.449964	-1.976275	0.286661	-0.502441	0.744141	1.366211
46561		7.490204	-0.073650	-6.495005	-0.555594	-1.569703	0.385487	-0.479248	0.730225	1.371338
46562		7.988831	0.358730	-5.140314	-1.214416	-1.136614	0.403801	-0.459961	0.702148	1.393799
46563		8.043414	0.527317	-5.090917	-0.906113	-0.665705	0.434387	-0.455322	0.702148	1.398193
46564		6.641119	0.491040	-5.637249	-0.953862	-0.232443	0.410669	-0.451904	0.673828	1.412109
46565		5.686219	0.157829	-6.162680	-0.975944	0.159404	0.324398	-0.449463	0.666992	1.409912
46566		5.579981	-0.036364	-6.928028	-0.922756	0.498871	0.234091	-0.453369	0.650391	1.416992
46567		5.484092	-0.828232	-6.771179	-1.131318	0.880730	0.090006	-0.477539	0.629395	1.421387
46568		5.184176	-1.409348	-6.711481	-0.702266	1.190114	0.007439	-0.492920	0.615234	1.417236
46569		5.330060	-1.108447	-6.439829	-0.420094	1.460604	-0.007300	-0.517578	0.605713	1.406250
46570		5.434633	-0.590008	-6.296743	-0.182617	1.730509	0.026333	-0.540039	0.601074	1.397461
46571		5.300910	-0.911645	-6.415514	-0.100536	1.989762	0.074623	-0.572021	0.601074	1.388428
46572		5.568552	-1.007281	-6.554797	0.272882	2.223824	0.114921	-0.605957	0.596191	1.368408
46573		5.843361	-0.499254	-6.601335	0.432447	2.474098	0.094297	-0.637695	0.596191	1.342041
46574		5.891439	-0.475954	-6.670452	0.383440	2.706084	0.042445	-0.676514	0.598389	1.315430
46575		6.020336	-0.556517	-6.766409	0.421404	2.920288	-0.014498	-0.724365	0.600830	1.295166
46576		5.941605	-0.564139	-6.734669	0.464561	3.135039	-0.053264	-0.756348	0.603027	1.268799
46577		5.847766	-0.475675	-6.714621	0.503957	3.331285	-0.093051	-0.806641	0.607666	1.230957
46578		5.606302	-0.738564	-6.820921	0.538345	3.520352	-0.150850	-0.849854	0.607666	1.191406
46579		5.640919	-1.019843	-7.357435	0.664813	3.696803	-0.240309	-0.899902	0.607666	1.149414
46580		6.067152	-1.016257	-7.901549	0.759745	3.876009	-0.351512	-0.947510	0.605225	1.114258
46581		6.168685	-1.504693	-7.836002	0.443779	4.088210	-0.462782	-0.993164	0.605225	1.061523
46582		6.317503	-1.250416	-7.521028	0.231328	4.253863	-0.518524	-1.044922	0.595703	1.017578
46583		6.615245	-1.254723	-7.274254	0.006391	4.409061	-0.550585	-1.092285	0.583984	0.960693
46584		6.687418	-1.679773	-7.215195	-0.064720	4.531991	-0.569353	-1.139648	0.572266	0.908203
46585		6.805535	-2.165681	-7.265199	0.035297	4.647474	-0.574206	-1.187012	0.562988	0.847168
46586		7.008435	-2.444517	-7.265848	0.309922	4.747809	-0.591127	-1.234375	0.549072	0.785889
46587		7.332961	-2.242898	-7.297469	0.619040	4.829881	-0.619670	-1.275391	0.553711	0.711426
46588		7.782226	-1.764286	-7.195616	0.759074	4.902953	-0.656869	-1.306641	0.537354	0.639648
46589		8.298146	-1.265886	-7.194801	0.796069	4.966951	-0.670872	-1.340820	0.539795	0.561035
46590		8.782621	-0.492418	-6.887989	0.816226	5.002319	-0.673142	-1.376709	0.528076	0.486816
46591		9.099080	0.133761	-6.509402	0.660556	5.023240	-0.681581	-1.403564	0.518799	0.406250
46592		9.346870	0.172267	-6.290371	0.435269	5.012983	-0.695970	-1.425781	0.502686	0.330322
46593		9.661589	-0.300411	-5.807425	0.228740	4.975468	-0.699697	-1.445557	0.483887	0.247803
46594		10.081728	-1.026928	-5.287878	0.200717	4.903386	-0.696172	-1.461182	0.479492	0.176025
46595		10.429685	-1.567568	-4.624115	0.302090	4.764816	-0.693650	-1.471924	0.463135	0.102295
46596		10.813798	-1.647690	-4.073427	0.442191	4.603858	-0.715908	-1.478271	0.451660	0.021973
46597		11.331175	-1.877529	-3.829278	0.576436	4.438267	-0.745927	-1.484619	0.437744	-0.049561
46598		11.387582	-1.819756	-3.510057	0.828906	4.254775	-0.770683	-1.484131	0.426025	-0.131836
46599		11.251789	-1.525422	-3.138789	1.098192	4.029094	-0.796358	-1.478760	0.405273	-0.198730
46600		10.836263	-1.210268	-2.944230	1.271826	3.768695	-0.817962	-1.471436	0.388916	-0.259277
46601		10.113264	-0.813204	-4.759942	1.586616	3.489359	-0.811360	-1.470459	0.365723	-0.323975
46602		9.050699	0.383993	-1.919842	1.058212	3.285139	-0.813493	-1.458496	0.349365	-0.377686
46603		7.633060	2.802069	-1.107216	0.839646	2.879173	-0.672921	-1.451172	0.337891	-0.418701
46604		7.339007	2.816685	-0.587446	0.237748	2.441547	-0.513907	-1.450684	0.328613	-0.457520
46605		6.737673	1.567581	-0.261520	-0.298653	1.954815	-0.334968	-1.437256	0.331055	-0.483643
46606		5.736334	-0.227342	0.184062	-0.667866	1.390831	-0.163877	-1.428467	0.340332	-0.496826
46607		5.313562	-2.387088	0.132379	-0.778419	0.761310	-0.024044	-1.430664	0.338135	-0.507568
46608		5.387625	-3.420240	-0.417600	-0.546588	0.131507	0.092506	-1.426025	0.335693	-0.498779
46609		5.626208	-3.598647	-1.171951	-0.257660	-0.448462	0.189210	-1.426270	0.344971	-0.490234
46610		5.776924	-3.669985	-1.942155	0.082046	-0.957585	0.273791	-1.437988	0.349609	-0.470947
46611		6.124231	-3.278963	-2.475473	0.435175	-1.397826	0.365165	-1.442871	0.358887	-0.451660
46612		6.923836	-2.873029	-2.751865	0.538398	-1.780275	0.502786	-1.449707	0.361328	-0.425781
46613		7.422757	-3.537687	-3.486884	0.740952	-2.106295	0.621932	-1.447998	0.372803	-0.393311
46614		8.199267	-3.431494	-0.071615	1.163880	-2.387064	0.642202	-1.454834	0.377441	-0.363037
46615		18.787027	1.344285	11.080683	1.374022	-1.624168	0.560210	-1.462158	0.386719	-0.348145
46616		22.173682	6.424076	8.720175	2.259495	-0.767458	0.373316	-1.464355	0.384521	-0.354736
46617		16.228745	1.822979	2.974950	3.177284	-0.627440	0.248240	-1.459717	0.382080	-0.358887
46618		10.660972	0.494210	-1.956715	3.216021	-0.943629	0.221262	-1.461670	0.372803	-0.363037
46619		7.603104	3.626393	-2.412138	3.347876	-1.454887	0.400651	-1.463867	0.372803	-0.343506
46620		11.150189	10.414655	-1.236261	2.813961	-1.676853	0.592457	-1.466064	0.367920	-0.339111
46621		15.121812	12.254469	-2.346818	0.734362	-1.671627	0.749156	-1.468994	0.386719	-0.302490
46622		14.647851	4.979438	-2.416014	-1.495953	-1.664935	0.824523	-1.471924	0.403076	-0.270264
46623		12.145159	-6.501951	-1.585535	-2.711651	-1.729189	0.772474	-1.472656	0.424072	-0.229492
46624		11.665798	-14.229682	-1.847064	-2.061451	-1.863853	0.787136	-1.471191	0.445068	-0.193115
46625		11.700457	-12.348500	-1.559414	-0.193648	-1.931583	0.798992	-1.474121	0.461426	-0.163086
46626		10.194405	-6.620356	-1.926372	1.260301	-1.835211	0.683544	-1.467529	0.468262	-0.143555
46627		8.654995	-1.848021	-2.461700	1.623619	-1.611065	0.510680	-1.467773	0.473145	-0.132813
46628		7.763374	1.939191	-1.133393	0.832290	-1.388973	0.436703	-1.468018	0.477783	-0.115479
46629		8.404742	1.954405	-0.797972	-0.421664	-1.237821	0.439383	-1.466309	0.494141	-0.085449
46630		10.185080	0.222028	-1.575669	-1.143347	-1.129971	0.454194	-1.466553	0.500977	-0.070313
46631		11.343587	-1.799559	-2.847106	-1.008924	-1.051736	0.444861	-1.458252	0.517334	-0.048828
46632		11.224924	-1.364041	-2.841639	-0.423183	-0.974342	0.401848	-1.460205	0.512695	-0.029297
46633		10.764120	-0.077347	-1.761566	0.063555	-0.905567	0.338348	-1.456543	0.531494	-0.012207
46634		10.403966	0.428866	-0.983237	0.415340	-0.849323	0.302922	-1.458740	0.533691	-0.005615
46635		9.664695	0.354283	-0.462324	0.340091	-0.796959	0.318748	-1.450195	0.545410	-0.001465
46636		9.316597	-0.259957	0.289835	0.047349	-0.756576	0.331147	-1.448242	0.552490	0.013428
46637		9.564564	-1.691014	1.055745	-0.280222	-0.725938	0.326209	-1.443604	0.552490	0.026611
46638		9.632592	-3.331633	1.206523	-0.350113	-0.706864	0.312296	-1.439453	0.564209	0.039551
46639		9.256833	-3.772832	0.536238	-0.103082	-0.701412	0.297382	-1.435059	0.566406	0.050293
46640		8.849796	-2.364693	0.373327	0.151826	-0.701335	0.275291	-1.433350	0.578125	0.061035
46641		8.917094	-1.403142	-0.104105	0.133362	-0.701551	0.249073	-1.431396	0.587402	0.071533
46642		9.550776	-0.847942	-0.571068	-0.021909	-0.696967	0.244768	-1.424805	0.594482	0.084717
46643		10.099840	-0.337378	-0.751649	-0.047503	-0.700556	0.265472	-1.422852	0.601563	0.088867
46644		10.244488	0.460144	-0.830970	-0.111191	-0.703426	0.274625	-1.420654	0.606201	0.104004
46645		9.762701	0.947649	-0.279318	-0.164899	-0.711497	0.277493	-1.418701	0.610840	0.121338
46646		9.514879	0.045125	0.277625	-0.260295	-0.733287	0.259162	-1.414063	0.613281	0.127686
46647		9.596991	-1.405030	0.177754	-0.248484	-0.767819	0.256448	-1.410156	0.627197	0.145020
46648		9.553367	-2.635539	-0.129367	0.000520	-0.820514	0.261134	-1.406006	0.634277	0.151367
46649		9.433996	-2.582422	-0.341431	0.264121	-0.846531	0.261683	-1.401611	0.638916	0.157715
46650		9.415546	-1.825474	-0.513198	0.362319	-0.845443	0.261386	-1.395020	0.645996	0.170654
46651		9.803811	-0.761527	-1.075410	0.303391	-0.818434	0.246126	-1.392822	0.650635	0.181641
46652		9.940145	-0.198878	-1.370403	-0.024857	-0.766172	0.236178	-1.388672	0.659912	0.190186
46653		9.738875	-0.827412	-1.860216	-0.157052	-0.738483	0.199929	-1.386719	0.664795	0.198730
46654		9.886459	-1.131146	-2.013271	-0.173909	-0.737201	0.200170	-1.382080	0.666992	0.220459
46655		10.037210	-0.942382	-1.792370	-0.175793	-0.711710	0.221024	-1.382568	0.676270	0.226807
46656		9.740851	-0.636559	-1.311488	-0.225788	-0.703568	0.226650	-1.371338	0.678711	0.241943
46657		9.486908	-0.972707	-1.127562	-0.304547	-0.713442	0.228038	-1.374023	0.690430	0.250488
46658		9.479706	-1.059859	-0.966147	-0.315677	-0.732231	0.238913	-1.362549	0.690430	0.265869
46659		9.384684	-1.159341	-0.818539	-0.350766	-0.749352	0.248014	-1.363037	0.699707	0.280762
46660		9.384341	-1.487371	-0.848668	-0.256970	-0.787447	0.250261	-1.353760	0.697510	0.293945
46661		9.520532	-1.908707	-1.025742	-0.134746	-0.822421	0.242050	-1.354248	0.711426	0.302490
46662		9.711346	-1.261823	-1.096601	0.012939	-0.863355	0.261373	-1.347412	0.708984	0.313477
46663		9.535809	-0.713577	-1.000630	-0.079531	-0.886207	0.288278	-1.343506	0.725586	0.328369
46664		9.380147	-0.798510	-1.104720	-0.190767	-0.921169	0.302109	-1.338867	0.723145	0.345703
46665		9.035755	-0.727126	-0.941397	-0.265014	-0.970515	0.321149	-1.330078	0.727783	0.363281
46666		9.039535	-1.227282	-0.805089	-0.359777	-1.033075	0.332490	-1.326172	0.746582	0.377930
46667		9.286397	-1.645376	-0.822038	-0.322924	-1.084868	0.340753	-1.317139	0.751221	0.397705
46668		9.391494	-1.703224	-1.379678	-0.199832	-1.133641	0.358716	-1.308350	0.755859	0.415039
46669		9.735603	-1.338316	-1.881053	-0.232192	-1.149555	0.374520	-1.303955	0.758057	0.434570
46670		9.968813	-1.451787	-2.853820	-0.233617	-1.147003	0.380756	-1.295166	0.767578	0.447510
46671		9.812746	-1.194603	-3.172808	-0.299130	-1.125385	0.378937	-1.283936	0.774414	0.471436
46672		9.800269	-1.529009	-3.297857	-0.343113	-1.121308	0.366530	-1.272949	0.781494	0.484375
46673		10.049585	-1.827389	-2.901653	-0.409240	-1.119454	0.357759	-1.268555	0.783936	0.501709
46674		9.780468	-1.870169	-2.513769	-0.418290	-1.126045	0.352660	-1.254883	0.786133	0.521484
46675		9.362960	-1.924871	-2.165775	-0.419725	-1.170244	0.351245	-1.248535	0.797852	0.542969
46676		9.515082	-1.564126	-1.752937	-0.428198	-1.227754	0.348480	-1.237305	0.800293	0.564941
46677		9.904656	-1.280340	-1.834520	-0.436286	-1.301751	0.350400	-1.232910	0.807129	0.588623
46678		10.020959	-0.667401	-1.856829	-0.350567	-1.368368	0.346327	-1.215088	0.812012	0.606201
46679		9.945569	-0.763344	-1.807284	-0.359158	-1.451977	0.333975	-1.208496	0.821289	0.638672
46680		9.885792	-1.235856	-1.922586	-0.356705	-1.554175	0.314047	-1.194824	0.818848	0.654053
46681		9.991261	-1.740748	-1.945697	-0.296337	-1.650527	0.304633	-1.178955	0.823486	0.682373
46682		10.118361	-2.277545	-1.858359	-0.240955	-1.736350	0.298331	-1.167480	0.821289	0.708740
46683		10.617576	-1.928361	-1.651266	-0.262570	-1.818245	0.311348	-1.149658	0.825928	0.739258
46684		10.794369	-2.111041	-1.473245	-0.390810	-1.890673	0.347776	-1.143311	0.837646	0.756592
46685		10.891925	-2.216393	-1.547381	-0.446323	-2.001913	0.377075	-1.115723	0.835205	0.787354
46686		11.356870	-1.440257	-0.562272	-0.568498	-2.072727	0.405148	-1.100098	0.842285	0.817871
46687		11.834248	-2.073302	-1.500912	-0.603782	-2.134362	0.391939	-1.072754	0.839844	0.844238
46688		12.341595	-2.301834	-2.713650	-0.417785	-2.303688	0.390963	-1.050049	0.842285	0.883545
46689		13.941186	0.057840	-2.299637	-0.465942	-2.318344	0.443624	-1.027100	0.837402	0.914307
46690		13.647606	0.220041	-2.066779	-0.594600	-2.300334	0.491399	-1.002441	0.842285	0.947266
46691		13.533031	0.505523	-2.352379	-0.620041	-2.346358	0.478102	-0.974854	0.839844	0.975830
46692		14.553313	0.377948	-2.603959	-0.697353	-2.372264	0.445375	-0.952148	0.839844	1.013184
46693		16.475539	2.554070	0.631806	-1.205270	-2.381891	0.464779	-0.921875	0.823486	1.050781
46694		17.761286	3.596393	2.639372	-1.979771	-2.402755	0.549799	-0.896240	0.806885	1.094971
46695		16.879009	1.993673	2.623754	-2.361579	-2.408428	0.593355	-0.868164	0.783447	1.145752
46696		14.114307	-0.611449	1.550203	-3.000668	-2.501106	0.646022	-0.830322	0.748291	1.199219
46697		12.311436	-4.442131	-1.901138	-2.811083	-2.763899	0.632352	-0.790527	0.720215	1.256836
46698		12.720475	-6.517168	-3.544005	-2.561248	-2.894590	0.539560	-0.755371	0.692139	1.292725
46699		13.588252	-6.472764	-4.029179	-2.460855	-2.816818	0.416420	-0.720215	0.668701	1.339355
46700		13.270444	-6.362662	-4.963786	-1.851646	-2.647844	0.266094	-0.685059	0.640625	1.368652
46701		12.306396	-6.242833	-5.825256	-0.351305	-2.349953	0.126083	-0.650635	0.635986	1.386719
46702		11.203490	-5.469898	-5.408021	0.708894	-1.974328	-0.002309	-0.630615	0.647705	1.393066
46703		8.569226	-6.088228	-6.805480	1.433132	-1.842228	-0.039287	-0.605957	0.654785	1.386719
46704		6.283386	-6.438714	-9.611520	1.902228	-1.876789	0.043462	-0.579590	0.678223	1.388672
46705		5.260102	-4.469371	-9.174825	1.199445	-1.805161	0.202434	-0.554932	0.685303	1.384521
46706		4.815613	-2.235274	-7.069906	-0.158260	-1.530887	0.384511	-0.531738	0.673828	1.400146
46707		6.796321	-0.614480	-4.726458	-0.955782	-1.244298	0.459363	-0.512695	0.657227	1.416016
46708		8.885934	-0.168533	-4.137050	-0.801165	-0.737615	0.401100	-0.500977	0.643311	1.418701
46709		7.416645	0.939679	-4.733673	-0.525708	-0.232906	0.321915	-0.495850	0.633789	1.425537
46710		6.339663	0.481761	-5.728874	-0.539162	0.151384	0.201065	-0.502441	0.624512	1.421143
46711		5.682897	1.303279	-5.031736	-0.482418	0.565813	0.052997	-0.512939	0.601074	1.421631
46712		4.940273	-0.350007	-6.150611	-0.173898	0.906488	-0.098191	-0.528809	0.603271	1.416992
46713		4.620266	-0.386292	-6.018592	0.269094	1.252672	-0.224763	-0.546875	0.598633	1.399658
46714		4.682783	-0.819113	-6.206733	0.397413	1.583864	-0.279870	-0.578613	0.593994	1.392822
46715		4.919805	0.225323	-5.838296	0.396809	1.884102	-0.251149	-0.607910	0.589111	1.373047
46716		5.143587	0.184875	-5.927143	0.245091	2.174374	-0.205927	-0.637695	0.596191	1.350830
46717		5.151640	-0.133559	-5.989196	0.158742	2.459228	-0.169210	-0.678467	0.586670	1.341797
46718		5.083282	-0.927845	-6.294217	0.195828	2.708137	-0.130802	-0.712402	0.586670	1.306641
46719		5.171213	-1.226076	-6.449149	0.452951	2.955909	-0.130839	-0.755859	0.591309	1.288574
46720		5.083358	-1.503615	-6.988193	0.696756	3.198761	-0.188753	-0.799316	0.598389	1.248779
46721		5.281716	-1.742486	-7.289359	0.957049	3.422246	-0.275177	-0.849609	0.603027	1.213379
46722		5.325281	-1.221661	-7.192363	1.119709	3.643023	-0.347290	-0.893066	0.605225	1.164795
46723		5.412800	-0.219300	-6.865823	1.047596	3.834312	-0.401015	-0.940430	0.600586	1.118652
46724		5.708763	0.478368	-6.569604	0.860865	4.016705	-0.456219	-0.993164	0.605225	1.072266
46725		5.977143	0.590709	-6.568376	0.610853	4.202015	-0.512869	-1.043213	0.605225	1.021729
46726		6.272548	0.192453	-6.879228	0.453260	4.369074	-0.550027	-1.088623	0.602783	0.973389
46727		6.505470	-0.067378	-7.284430	0.321124	4.535184	-0.577647	-1.142822	0.593506	0.909912
46728		6.712994	-0.615851	-7.444923	0.129798	4.694520	-0.596204	-1.183105	0.579346	0.848877
46729		6.865878	-0.992155	-7.375478	0.055606	4.826516	-0.601068	-1.235107	0.567627	0.787598
46730		7.392163	-1.166078	-7.429326	0.020427	4.938460	-0.593626	-1.273438	0.560791	0.715576
46731		8.347310	-1.298892	-7.697089	0.056306	5.039460	-0.602513	-1.309326	0.551270	0.652344
46732		9.015546	-1.617232	-7.708400	0.013539	5.139732	-0.625030	-1.345459	0.539795	0.578369
46733		8.844089	-1.874248	-7.586606	0.086273	5.201700	-0.659124	-1.379150	0.528076	0.508545
46734		8.873793	-1.602012	-7.315557	0.273330	5.192385	-0.706025	-1.407959	0.514160	0.421631
46735		9.216825	-0.965866	-6.739675	0.323944	5.159092	-0.716541	-1.437256	0.507324	0.343018
46736		9.907554	-0.542246	-6.121181	0.289445	5.093872	-0.704791	-1.454834	0.490967	0.256348
46737		10.393454	-0.258914	-5.354256	0.190049	5.000430	-0.675239	-1.470459	0.484131	0.182373
46738		10.586665	-0.545979	-4.716128	0.144867	4.875321	-0.667988	-1.481201	0.465332	0.108643
46739		10.517408	-0.466104	-4.453239	0.006204	4.727790	-0.642524	-1.487549	0.456299	0.028320
46740		10.900690	-1.381039	-4.276975	-0.166458	4.570975	-0.610098	-1.489258	0.439941	-0.041016
46741		11.370342	-2.053248	-4.079559	0.034021	4.394017	-0.581858	-1.489014	0.433105	-0.112549
46742		11.241268	-2.681049	-4.315189	0.500402	4.178230	-0.578678	-1.490723	0.421631	-0.184082
46743		10.646050	-2.230645	-3.916222	0.911743	3.935521	-0.633457	-1.483398	0.405273	-0.248779
46744		10.778722	-1.824599	-4.957549	1.419312	3.618023	-0.739103	-1.473633	0.391357	-0.313721
46745		9.123805	0.891406	-2.725750	1.407344	3.340517	-0.763818	-1.468506	0.372803	-0.367432
46746		7.405613	1.205639	-1.627458	1.154428	2.851372	-0.658046	-1.461182	0.361084	-0.417236
46747		6.311831	1.572675	-1.119249	0.935812	2.232756	-0.521551	-1.456055	0.347168	-0.456055
46748		5.757202	1.391963	-0.418978	0.765682	1.537861	-0.418890	-1.451172	0.337891	-0.468750
46749		5.026820	0.908235	0.551935	0.373848	0.787484	-0.296118	-1.446533	0.335693	-0.483887
46750		4.637441	-0.167548	0.549764	0.266842	-0.029177	-0.145072	-1.450928	0.335693	-0.488281
46751		4.724787	-2.223812	-0.457020	0.240604	-0.769764	-0.002187	-1.453125	0.333252	-0.470703
46752		5.310706	-3.989649	-1.809440	0.470077	-1.379510	0.084671	-1.462402	0.337891	-0.451416
46753		7.139788	-4.275932	-2.475893	0.947760	-1.878297	0.157015	-1.475830	0.330566	-0.412354
46754		8.841822	-3.686101	-2.903024	1.419879	-2.266702	0.269309	-1.478516	0.337646	-0.390625
46755		9.664340	-1.622721	1.614946	1.365177	-2.460538	0.443287	-1.487793	0.346924	-0.360596
46756		17.973802	3.554648	10.192281	0.625854	-1.664682	0.545905	-1.485840	0.351563	-0.343262
46757		19.345366	3.057276	8.268897	0.591401	-0.857405	0.488425	-1.488281	0.356201	-0.334717
46758		13.529512	-1.089424	3.962093	1.478339	-0.836952	0.411165	-1.486084	0.358643	-0.321777
46759		9.590034	-1.903965	-0.716894	1.823613	-1.120308	0.362068	-1.492920	0.358643	-0.319580
46760		8.343776	0.515759	-1.998734	2.480086	-1.602243	0.504934	-1.495361	0.363281	-0.293701
46761		12.065820	6.103790	-0.440596	2.407603	-1.808189	0.611586	-1.497803	0.365479	-0.280762
46762		14.796743	8.381409	-1.494293	1.198736	-1.777599	0.616361	-1.498047	0.377197	-0.259277
46763		12.891252	2.995813	-2.940847	-0.007930	-1.784790	0.607645	-1.496338	0.388916	-0.229004
46764		10.653278	-2.419396	-2.469062	-0.564721	-1.820749	0.601677	-1.503418	0.395752	-0.200928
46765		10.810581	-6.543788	-3.248143	-0.493513	-1.893034	0.644741	-1.502197	0.419189	-0.164551
46766		11.376444	-7.085558	-3.159292	0.342140	-1.925638	0.739205	-1.498047	0.430664	-0.136475
46767		10.525131	-3.732697	-2.288606	0.850028	-1.799058	0.735838	-1.502930	0.437744	-0.117188
46768		8.942131	-1.120527	-2.499984	0.813056	-1.593957	0.636450	-1.494385	0.451904	-0.095703
46769		7.717235	-0.562068	-1.261303	0.323444	-1.417475	0.572744	-1.492188	0.454102	-0.073975
46770		8.609820	-0.571326	-0.130906	-0.235075	-1.318307	0.599532	-1.488525	0.477539	-0.052734
46771		9.889455	-1.886137	0.035519	-0.661685	-1.242878	0.573787	-1.486572	0.486816	-0.022461
46772		10.050224	-2.893488	-0.510332	-0.517724	-1.194207	0.502556	-1.489258	0.496094	-0.007324
46773		9.850315	-2.822039	-1.171555	0.073714	-1.151393	0.437647	-1.480469	0.503174	0.007813
46774		9.951430	-2.027860	-1.262051	0.570892	-1.115236	0.398034	-1.476318	0.514893	0.020508
46775		10.552074	-1.070719	-1.902996	0.968039	-1.092700	0.390550	-1.474121	0.519531	0.033447
46776		10.677271	0.599403	-2.262961	1.017836	-1.040283	0.386428	-1.472412	0.533447	0.044189
46777		10.327517	1.628920	-2.687954	0.625743	-0.947995	0.378227	-1.468262	0.540527	0.052734
46778		10.221993	2.480619	-2.538106	0.042708	-0.854676	0.394066	-1.463867	0.545166	0.074463
46779		10.461739	2.047922	-2.091243	-0.617429	-0.754676	0.406752	-1.457275	0.554688	0.085205
46780		10.399062	0.008455	-2.034439	-1.058945	-0.668504	0.407410	-1.457764	0.563965	0.097900
46781		10.281320	-1.984584	-2.552965	-0.994862	-0.609347	0.384401	-1.448730	0.568604	0.115479
46782		10.052818	-2.120027	-2.247314	-0.798911	-0.556515	0.364155	-1.445068	0.587402	0.127930
46783		9.953057	-1.902763	-1.832644	-0.818889	-0.492393	0.347412	-1.445068	0.589600	0.136719
46784		10.146889	-2.016483	-1.501509	-0.721871	-0.432868	0.310742	-1.443115	0.594238	0.149658
46785		9.892962	-2.114207	-1.403841	-0.444765	-0.374273	0.274760	-1.443359	0.601318	0.162598
46786		9.514323	-2.301080	-1.435980	-0.582095	-0.302568	0.256094	-1.436768	0.605957	0.166748
46787		9.496632	-2.442731	-1.613424	-0.362251	-0.265994	0.237166	-1.432373	0.613037	0.168945
46788		9.565625	-1.498777	-1.329819	-0.168920	-0.256484	0.211883	-1.428223	0.624756	0.179688
46789		9.960925	-0.863211	-1.225683	-0.348976	-0.232139	0.205326	-1.428467	0.629395	0.183838
46790		10.156200	-0.824670	-1.041785	-0.434362	-0.226628	0.200422	-1.426025	0.627197	0.199219
46791		10.201577	-0.781671	-1.222869	-0.536806	-0.205473	0.188086	-1.421875	0.636475	0.196777
46792		9.806751	-1.055485	-1.270137	-0.591455	-0.196168	0.187352	-1.424316	0.638916	0.205322
46793		9.594816	-1.385178	-1.086951	-0.594016	-0.203466	0.171972	-1.417725	0.645752	0.209717
46794		9.740264	-0.721934	-0.574467	-0.630959	-0.212841	0.174979	-1.420166	0.650391	0.216064
46795		9.698479	-0.829763	-0.046866	-0.837188	-0.211988	0.175304	-1.408936	0.655273	0.231201
46796		9.393524	-1.715897	-0.239455	-0.682388	-0.244646	0.169989	-1.416260	0.664551	0.237549
46797		9.386032	-1.600689	-0.044585	-0.572302	-0.296023	0.181532	-1.413818	0.662109	0.248535
46798		9.272314	-1.628135	-0.312110	-0.491918	-0.334103	0.181662	-1.407227	0.669189	0.250488
46799		9.525060	-0.920435	-0.132910	-0.363717	-0.385920	0.182345	-1.409668	0.669189	0.263672
46800		9.664343	-0.781787	-0.314996	-0.379563	-0.414703	0.171358	-1.402832	0.673828	0.270020
46801		9.585713	-0.588667	-0.235460	-0.374477	-0.462165	0.181342	-1.403076	0.678467	0.285156
46802		9.649292	-1.142512	-0.320894	-0.421392	-0.508391	0.184019	-1.403320	0.683105	0.293701
46803		9.686322	-1.494677	-0.141220	-0.436747	-0.559759	0.177924	-1.392090	0.687988	0.306885
46804		9.510188	-1.761719	0.204666	-0.419259	-0.622749	0.170127	-1.394531	0.694824	0.319824
46805		9.408599	-1.983414	0.219592	-0.274060	-0.704868	0.170619	-1.388184	0.701904	0.334961
46806		9.330488	-1.500967	0.461302	-0.196511	-0.793033	0.173402	-1.385742	0.699463	0.352295
46807		9.281470	-1.240272	0.424107	-0.241948	-0.875673	0.175864	-1.379150	0.704102	0.358887
46808		9.123358	-1.408386	0.235524	-0.264868	-0.951034	0.167745	-1.372559	0.708740	0.385010
46809		9.177126	-1.558885	-0.179677	-0.187289	-1.026231	0.175522	-1.365967	0.715820	0.397949
46810		9.320626	-1.651343	-1.150821	-0.017638	-1.081491	0.189890	-1.357178	0.727539	0.415039
46811		9.345264	-1.392071	-1.791624	0.004727	-1.101192	0.191019	-1.354736	0.718262	0.428467
46812		9.711300	-1.292569	-2.597657	0.105695	-1.126475	0.174216	-1.350586	0.732178	0.438965
46813		10.048145	-1.120938	-3.024618	0.066987	-1.100488	0.174156	-1.346191	0.732178	0.460693
46814		9.925499	-1.068329	-2.962595	-0.061543	-1.069488	0.175132	-1.339600	0.739258	0.475830
46815		9.714283	-1.126268	-2.719123	-0.125522	-1.051492	0.168721	-1.337402	0.746094	0.497559
46816		9.652741	-1.304861	-2.397513	-0.250432	-1.045151	0.177340	-1.326172	0.748535	0.514893
46817		9.526459	-1.461714	-2.129636	-0.369554	-1.049418	0.174307	-1.317139	0.750977	0.525879
46818		9.596929	-1.593983	-2.017394	-0.420997	-1.070676	0.164228	-1.317139	0.750732	0.545410
46819		9.819173	-1.482712	-2.081949	-0.515952	-1.090038	0.153407	-1.308350	0.757813	0.567139
46820		10.020372	-1.043296	-2.182905	-0.475065	-1.122551	0.147419	-1.299316	0.757813	0.593506
46821		9.855708	-0.492824	-2.231855	-0.496843	-1.150812	0.141890	-1.292480	0.760254	0.608643
46822		9.807051	-0.846879	-2.470601	-0.495172	-1.195483	0.115592	-1.285645	0.755371	0.637207
46823		10.009022	-0.952014	-2.295426	-0.424295	-1.254776	0.080633	-1.276367	0.755371	0.654541
46824		10.241014	-1.599446	-2.263954	-0.371773	-1.303877	0.049960	-1.274170	0.757813	0.674072
46825		10.189271	-1.849206	-2.129470	-0.254265	-1.381279	0.041966	-1.256104	0.755371	0.702637
46826		10.422503	-1.641769	-2.004599	-0.198935	-1.444802	0.030319	-1.247070	0.760010	0.726563
46827		10.535912	-1.951773	-2.146404	-0.145357	-1.493158	0.010909	-1.235840	0.762207	0.744141
46828		10.559328	-1.800173	-2.304283	-0.129305	-1.553297	0.004047	-1.229004	0.762207	0.770264
46829		10.647750	-1.573605	-2.516313	-0.083136	-1.620704	-0.005504	-1.215576	0.767090	0.787598
46830		10.607142	-1.306341	-2.380429	-0.136543	-1.667582	-0.014609	-1.201416	0.757568	0.812012
46831		10.504188	-1.060770	-2.148256	-0.194225	-1.725488	-0.022554	-1.189941	0.755127	0.842529
46832		10.656181	-0.755152	-1.413082	-0.342471	-1.756902	-0.041051	-1.169434	0.750488	0.869141
46833		10.543118	-1.804108	-1.845360	-0.417107	-1.853923	-0.084826	-1.160156	0.750488	0.895264
46834		11.442353	-2.715469	-1.586489	-0.170914	-1.986992	-0.074637	-1.139893	0.755127	0.919434
46835		12.367322	-1.607768	-0.612425	-0.127135	-1.990679	-0.031373	-1.125977	0.745850	0.954590
46836		11.527830	-1.567314	0.034057	0.058771	-2.097414	0.021094	-1.100830	0.745850	0.972168
46837		11.804116	-0.716100	0.157173	0.048888	-2.235015	0.061677	-1.080566	0.748047	1.002930
46838		13.198652	-0.352793	0.439412	0.021839	-2.330092	0.131604	-1.055664	0.752686	1.031250
46839		14.130793	0.413799	0.019093	0.142921	-2.393366	0.205601	-1.030762	0.752930	1.053223
46840		14.216229	0.991318	-1.269711	0.280646	-2.409134	0.241162	-1.006104	0.764648	1.077148
46841		14.611348	3.152179	2.329593	-0.478060	-2.394009	0.234447	-0.975830	0.745850	1.114990
46842		15.452299	4.410448	3.087469	-1.370988	-2.531051	0.288297	-0.947754	0.727051	1.150635
46843		14.061092	0.277142	1.827057	-1.973071	-2.697124	0.340190	-0.908447	0.712891	1.205811
46844		12.909200	-4.004192	-0.026011	-2.077069	-2.983213	0.364531	-0.875977	0.691895	1.250000
46845		13.537138	-6.150833	-1.986778	-1.482327	-3.201068	0.393428	-0.825195	0.677734	1.283691
46846		14.630047	-5.356816	-1.554083	-1.194028	-3.210360	0.363833	-0.792725	0.659180	1.327881
46847		14.764612	-4.290096	-2.633687	-1.080485	-3.035498	0.284003	-0.748779	0.642822	1.352783
46848		13.704960	-4.518533	-3.973446	-0.673216	-2.756426	0.170843	-0.717041	0.645020	1.374756
46849		12.266055	-5.509464	-5.241232	0.695164	-2.424027	0.114250	-0.676270	0.649902	1.381592
46850		10.041880	-5.507111	-6.259674	1.418415	-2.276257	0.139090	-0.647217	0.664063	1.388184
46851		8.677427	-6.740461	-8.787597	1.944855	-2.228316	0.209734	-0.614258	0.692383	1.385742
46852		7.796626	-4.547370	-9.586816	1.725212	-2.160479	0.395181	-0.576416	0.711182	1.379150
46853		7.391335	-2.563175	-8.032658	0.341382	-1.913615	0.545708	-0.548828	0.706543	1.395020
46854		8.575289	-0.338691	-5.527777	-0.739522	-1.554240	0.627996	-0.518555	0.685547	1.410889
46855		9.808252	-0.671147	-4.607764	-1.001035	-1.052622	0.595901	-0.506592	0.671387	1.420166
46856		8.887617	0.316981	-4.543838	-0.570813	-0.484793	0.559808	-0.497070	0.662109	1.420410
46857		7.235578	0.131297	-5.188740	-0.505248	-0.027549	0.487840	-0.496582	0.652588	1.420654
46858		6.814104	-0.299660	-5.700279	-0.294785	0.376044	0.378841	-0.494141	0.643311	1.418701
46859		6.367697	-0.182317	-6.169489	0.013388	0.801209	0.241798	-0.514648	0.647949	1.416260
46860		5.458765	-0.152902	-6.149015	0.134164	1.235596	0.114339	-0.530273	0.640869	1.396729
46861		4.814598	-0.030483	-6.110662	0.340850	1.573497	0.059449	-0.551025	0.645508	1.383301
46862		4.502392	-0.352313	-6.585661	0.569546	1.929137	0.063518	-0.582764	0.643066	1.369873
46863		4.433290	-0.150469	-7.075327	0.411308	2.270870	0.102637	-0.609863	0.638428	1.347900
46864		4.776707	0.125573	-6.895707	0.172062	2.633663	0.174183	-0.646484	0.643066	1.325684
46865		4.901681	0.780147	-6.374512	0.009194	2.961587	0.272603	-0.682861	0.640625	1.301270
46866		4.930991	1.226646	-6.157618	-0.081083	3.267457	0.349762	-0.728271	0.638184	1.276855
46867		5.001036	0.861769	-6.155940	-0.205536	3.590857	0.375198	-0.766602	0.631104	1.248291
46868		5.063991	-0.158713	-6.496782	-0.029326	3.887622	0.371674	-0.818848	0.631104	1.210693
46869		5.143357	-0.761584	-7.057310	0.500199	4.143655	0.331035	-0.871338	0.635742	1.170898
46870		5.139692	-0.482901	-7.152445	0.700364	4.398421	0.248660	-0.910400	0.642822	1.113770
46871		4.971100	-0.324956	-7.121013	0.693473	4.619381	0.141918	-0.964844	0.640381	1.063232
46872		5.104699	0.067827	-6.986394	0.685816	4.837181	0.040305	-1.024658	0.654541	1.003418
46873		5.380070	0.362274	-6.971600	0.588669	5.058531	-0.077339	-1.072021	0.647461	0.942139
46874		5.770202	0.372805	-7.394747	0.545723	5.263337	-0.193402	-1.128906	0.647461	0.874023
46875		6.166924	0.577712	-7.788625	0.402428	5.438021	-0.314504	-1.174316	0.645264	0.803955
46876		6.977168	0.328944	-7.804739	0.004414	5.608723	-0.454971	-1.226318	0.635742	0.734131
46877		7.324684	-0.513903	-7.854727	-0.381292	5.763145	-0.591674	-1.266846	0.626465	0.657715
46878		7.864679	-1.128956	-7.859536	-0.570441	5.882399	-0.716459	-1.311523	0.603027	0.581543
46879		8.696920	-1.392818	-7.982484	-0.536716	5.980762	-0.831229	-1.356445	0.591553	0.498779
46880		9.879767	-1.935892	-8.175168	-0.334873	6.074383	-0.949981	-1.385254	0.568115	0.409668
46881		10.436146	-1.943188	-8.015166	0.076096	6.129217	-1.068201	-1.418701	0.556641	0.318359
46882		10.696084	-1.540801	-7.508613	0.453396	6.098437	-1.155147	-1.445313	0.535645	0.216309
46883		11.536040	-0.603132	-6.536609	0.636545	5.996581	-1.214960	-1.455811	0.517090	0.120850
46884		12.715535	-0.227175	-6.167274	0.565052	5.825817	-1.210695	-1.473389	0.496094	0.029785
46885		13.457208	0.071643	-5.589244	0.423871	5.603653	-1.148025	-1.481934	0.484619	-0.067871
46886		12.895780	-0.823679	-4.804942	0.357822	5.299195	-1.069632	-1.478760	0.461426	-0.152100
46887		12.057216	-1.894313	-3.903931	0.593922	4.850244	-1.032138	-1.482178	0.433350	-0.227783
46888		11.017035	-3.136958	-4.254425	1.186519	4.275369	-1.056053	-1.469971	0.414795	-0.301025
46889		10.141252	-1.937899	-5.961069	2.378969	3.666892	-1.079291	-1.466797	0.391602	-0.363525
46890		6.402667	0.251408	-3.130102	1.905178	3.062582	-1.059145	-1.458740	0.361084	-0.415039
46891		4.714947	4.550769	-0.369194	1.377715	2.103399	-0.762455	-1.456299	0.354248	-0.453857
46892		3.246855	2.394031	1.815039	-0.214794	1.081706	-0.372431	-1.458496	0.349609	-0.458252
46893		2.695644	-2.547522	1.465414	-1.131765	0.002365	-0.017887	-1.458740	0.358887	-0.451904
46894		4.212353	-7.829855	-0.887424	-0.528246	-1.006627	0.171499	-1.461182	0.363525	-0.430176
46895		5.903745	-9.723180	-3.090621	0.915290	-1.809513	0.293925	-1.468018	0.365967	-0.413086
46896		6.431760	-8.629468	-5.568378	2.091129	-2.401463	0.438470	-1.477051	0.363281	-0.375977
46897		6.251108	-5.641710	-5.943693	2.592698	-2.856354	0.581085	-1.486572	0.370361	-0.345947
46898		13.853939	0.056125	4.078389	2.362107	-2.549338	0.729871	-1.486816	0.377197	-0.320068
46899		21.590308	8.004942	8.154665	1.954634	-1.522481	0.699979	-1.484375	0.375000	-0.311279
46900		19.971812	6.105900	4.740695	1.602774	-1.054952	0.591973	-1.491699	0.384277	-0.298340
46901		11.841162	0.561106	-1.882193	2.164622	-1.191367	0.386273	-1.487061	0.386719	-0.287598
46902		7.956957	1.584945	-5.467079	2.931479	-1.726371	0.343641	-1.496094	0.381836	-0.272461
46903		9.891172	7.751890	-3.474161	3.058373	-2.042555	0.479893	-1.493896	0.384277	-0.254883
46904		13.873488	12.519930	-1.084843	1.629051	-1.987396	0.649591	-1.494141	0.388916	-0.231201
46905		13.400022	6.421423	-2.627586	-0.520593	-1.836261	0.728571	-1.496826	0.402832	-0.198975
46906		11.151987	-2.859760	-2.915888	-1.642300	-1.786009	0.705281	-1.502197	0.423828	-0.160400
46907		9.770606	-10.386708	-3.759508	-1.537392	-1.839809	0.678045	-1.503174	0.444824	-0.128174
46908		10.105750	-12.958446	-3.579417	-0.127518	-1.941929	0.745147	-1.498779	0.449463	-0.097656
46909		11.092934	-8.664370	-2.094358	1.489284	-1.883357	0.836528	-1.494629	0.463379	-0.078369
46910		10.134640	-1.972708	-2.413976	1.797985	-1.668223	0.743297	-1.486084	0.472900	-0.059082
46911		7.879552	2.756735	-2.490242	0.901732	-1.396411	0.637416	-1.479736	0.486816	-0.050537
46912		7.795305	4.717820	-2.374264	-0.602871	-1.193327	0.588909	-1.482666	0.500977	-0.022705
46913		10.214948	2.945365	-2.585209	-1.930276	-1.056811	0.554364	-1.482910	0.507813	0.009766
46914		12.328448	0.069481	-3.303574	-2.208508	-0.957693	0.506723	-1.471924	0.521973	0.037842
46915		12.008182	-3.626100	-3.916779	-1.752566	-0.872647	0.452498	-1.479248	0.533447	0.063721
46916		10.651107	-3.582287	-3.273886	-0.662223	-0.842906	0.437945	-1.468262	0.540527	0.078857
46917		10.171683	-2.306092	-2.167605	-0.027569	-0.828921	0.414259	-1.470947	0.549805	0.087158
46918		10.711968	-1.251821	-1.426460	0.138943	-0.766946	0.356183	-1.464355	0.556885	0.098145
46919		10.570980	-1.616328	-0.956127	0.048287	-0.675763	0.301231	-1.469238	0.568604	0.108643
46920		10.214585	-1.936325	-0.531843	-0.241249	-0.570610	0.234849	-1.458008	0.568604	0.119629
46921		10.090039	-2.289229	-0.564895	-0.534271	-0.483428	0.206245	-1.458008	0.573242	0.130371
46922		10.036448	-2.550620	-1.090332	-0.787855	-0.426045	0.199029	-1.449219	0.580322	0.134766
46923		9.985270	-2.788351	-1.787262	-0.799527	-0.377721	0.184588	-1.447266	0.584961	0.160645
46924		10.093161	-1.753867	-1.929770	-0.669853	-0.333425	0.153287	-1.447510	0.592041	0.160400
46925		10.025995	-0.770433	-1.541916	-0.770943	-0.284273	0.125788	-1.445313	0.596680	0.169189
46926		9.776134	-0.652217	-1.236929	-0.887739	-0.242408	0.110188	-1.445313	0.596680	0.182129
46927		9.644734	-1.234343	-0.786113	-0.935033	-0.200184	0.111966	-1.440918	0.601318	0.193115
46928		9.338438	-1.398647	-0.797873	-0.837583	-0.188382	0.118400	-1.440918	0.601318	0.197266
46929		9.054419	-1.424031	-0.404942	-1.025255	-0.170012	0.115106	-1.441162	0.605957	0.208008
46930		9.163469	-1.686509	-0.476111	-0.884771	-0.206693	0.104310	-1.438965	0.608154	0.221191
46931		9.368944	-1.420707	-0.282858	-0.355066	-0.243024	0.090331	-1.432373	0.613037	0.225342
46932		9.394055	-0.869826	0.133063	-0.100692	-0.277855	0.068043	-1.434814	0.615234	0.231934
46933		9.515210	-0.714976	0.496704	-0.103733	-0.331854	0.077066	-1.428223	0.622314	0.240479
46934		9.609744	-0.445731	0.991419	-0.172310	-0.394176	0.092693	-1.430664	0.629395	0.244629
46935		9.418830	-0.513512	1.034046	-0.282132	-0.463618	0.097109	-1.426270	0.631592	0.255615
46936		9.155164	-1.022093	1.114819	-0.320954	-0.534134	0.111200	-1.426270	0.634033	0.268555
46937		9.323212	-1.552542	0.714382	-0.293991	-0.618048	0.110700	-1.417480	0.641113	0.274902
46938		10.140777	-1.682176	0.353062	-0.097648	-0.681732	0.114862	-1.415283	0.638672	0.294678
46939		10.102209	-1.349761	0.415034	0.059680	-0.741642	0.139916	-1.413330	0.647949	0.298828
46940		9.609719	-0.569174	0.552045	-0.058999	-0.792013	0.145290	-1.413574	0.657471	0.307373
46941		9.499560	-1.111749	0.148493	-0.254678	-0.848383	0.132995	-1.404541	0.655029	0.327148
46942		9.630738	-1.415959	-0.128877	-0.118071	-0.914704	0.135258	-1.400146	0.662109	0.344238
46943		9.617813	-1.106894	-0.333482	-0.101059	-0.975905	0.134397	-1.400146	0.661865	0.353027
46944		9.693044	-1.117650	-0.439628	-0.186596	-1.033415	0.134471	-1.388916	0.664307	0.379150
46945		9.805048	-0.972297	-0.446950	-0.095226	-1.083184	0.131215	-1.391602	0.676025	0.396240
46946		9.432447	-1.157950	-0.478660	-0.062868	-1.125322	0.125907	-1.385010	0.678223	0.411621
46947		9.348452	-1.445534	-0.976238	-0.059219	-1.161209	0.117165	-1.375977	0.680664	0.433350
46948		9.393045	-1.483083	-1.303913	-0.016560	-1.195529	0.112834	-1.371338	0.682861	0.446289
46949		9.635385	-1.315757	-1.879531	-0.000076	-1.223665	0.114561	-1.362549	0.689941	0.470215
46950		9.956531	-0.670369	-2.414703	-0.036085	-1.205077	0.119594	-1.353516	0.689941	0.481201
46951		9.885892	-0.414517	-2.614547	-0.245774	-1.186818	0.129020	-1.348877	0.687500	0.500977
46952		9.778460	-0.511104	-2.894785	-0.315153	-1.170641	0.126586	-1.340088	0.697021	0.522461
46953		9.690006	-0.836987	-2.921646	-0.324070	-1.174666	0.109786	-1.337891	0.696777	0.542236
46954		9.749228	-0.976506	-2.504563	-0.354881	-1.169127	0.095245	-1.331299	0.701416	0.563965
46955		9.551319	-1.237320	-2.045516	-0.195522	-1.203522	0.088262	-1.320068	0.703857	0.585693
46956		9.501656	-1.646972	-1.806985	-0.048899	-1.253996	0.081009	-1.315430	0.706299	0.600830
46957		9.594360	-1.752161	-1.591285	-0.008128	-1.292856	0.077631	-1.304443	0.715576	0.622559
46958		9.773844	-0.960803	-1.647773	0.074307	-1.348725	0.077360	-1.295166	0.710938	0.642334
46959		9.770366	-1.101761	-2.060757	-0.031850	-1.397961	0.083740	-1.283936	0.713135	0.659912
46960		9.969260	-0.820558	-2.195256	-0.056972	-1.454314	0.073758	-1.274658	0.710693	0.681641
46961		10.088548	-1.052232	-2.205306	-0.121536	-1.503040	0.055570	-1.265625	0.713135	0.708008
46962		10.016145	-1.317024	-1.919454	-0.047211	-1.583104	0.024477	-1.256836	0.717773	0.725342
46963		10.031838	-1.601526	-1.441396	-0.076988	-1.657724	-0.002539	-1.248047	0.724854	0.749268
46964		10.245111	-1.718636	-0.971846	-0.038573	-1.756567	-0.005246	-1.231934	0.719971	0.775635
46965		10.445913	-1.485705	-0.532664	-0.065260	-1.870573	0.011863	-1.216064	0.724854	0.801758
46966		10.504640	-1.262302	0.188602	-0.166468	-1.999779	0.033406	-1.200195	0.722412	0.830322
46967		11.120385	-1.065496	0.769404	-0.401167	-2.090106	0.041524	-1.184326	0.724609	0.860840
46968		11.337426	-1.985971	-0.315471	-0.349317	-2.262332	0.036894	-1.163818	0.722412	0.889404
46969		13.170962	-1.678800	-0.800371	-0.082486	-2.442449	0.083291	-1.141113	0.727051	0.926514
46970		14.829764	0.252585	-0.508509	-0.057115	-2.453784	0.166581	-1.116211	0.729248	0.959473
46971		14.094431	0.560529	-0.212158	0.052543	-2.536339	0.223481	-1.091309	0.734131	0.983398
46972		14.193993	1.108944	-0.619549	0.078584	-2.632316	0.241413	-1.061768	0.731689	1.016357
46973		14.975579	0.989381	-1.149151	0.108924	-2.683301	0.251455	-1.036865	0.734131	1.040527
46974		16.217004	1.092891	-1.679125	0.239338	-2.624395	0.267173	-1.007568	0.741211	1.069092
46975		16.437185	2.528117	0.780565	-0.279478	-2.526807	0.283684	-0.981934	0.729492	1.104492
46976		15.501668	4.659265	3.854830	-1.397227	-2.563287	0.370993	-0.945068	0.715332	1.144287
46977		13.816826	0.456074	2.650705	-2.350403	-2.618335	0.413631	-0.918945	0.687256	1.201904
46978		11.691004	-5.155722	-0.671586	-2.619763	-2.738823	0.379651	-0.881592	0.661377	1.239746
46979		11.184018	-8.554526	-4.690145	-1.452852	-2.980788	0.316750	-0.849365	0.652100	1.281738
46980		12.163207	-7.070064	-4.463225	-0.725103	-3.001374	0.201071	-0.807617	0.635742	1.312988
46981		12.674934	-5.107804	-5.248060	-0.092332	-2.834759	0.096338	-0.769043	0.635742	1.333008
46982		11.560973	-4.610438	-5.797897	0.441933	-2.594992	0.021437	-0.737549	0.642822	1.350586
46983		9.793434	-5.667182	-6.744605	0.743137	-2.488005	-0.013892	-0.703125	0.640381	1.366455
46984		8.209362	-6.799426	-8.038817	1.150690	-2.389142	-0.014906	-0.669678	0.656982	1.370605
46985		7.233753	-5.462332	-8.827602	1.553371	-2.320457	0.061262	-0.640625	0.668701	1.379395
46986		6.606001	-2.821943	-7.523979	0.853744	-2.053178	0.169052	-0.613281	0.668945	1.384033
46987		6.709817	-1.239249	-6.369140	0.241411	-1.720447	0.253714	-0.588379	0.668945	1.388672
46988		7.736094	-0.070841	-5.277046	-0.274725	-1.315989	0.249710	-0.560547	0.659668	1.393555
46989		8.044345	0.724020	-4.870554	-0.387471	-0.809521	0.217611	-0.558105	0.650146	1.402588
46990		6.773049	0.632717	-5.023273	-0.664475	-0.343350	0.141630	-0.552734	0.631348	1.411865
46991		6.428713	0.082698	-5.399497	-0.689939	0.072378	0.001675	-0.554443	0.619629	1.412109
46992		5.932692	0.312336	-5.490194	-0.480940	0.508131	-0.153012	-0.565430	0.607910	1.409912
46993		5.567170	0.210105	-5.578950	-0.362092	0.894154	-0.288976	-0.580811	0.591553	1.401611
46994		4.915608	-0.913074	-6.121296	-0.149488	1.254535	-0.396766	-0.607666	0.582031	1.395020
46995		4.794730	-1.701065	-6.346387	0.196143	1.594921	-0.419826	-0.625732	0.577393	1.375244
46996		4.767718	-0.842988	-6.110568	0.455193	1.909061	-0.377395	-0.662354	0.582031	1.359375
46997		5.043591	-0.829521	-6.189173	0.567277	2.192402	-0.299870	-0.698730	0.584229	1.337158
46998		5.023213	-0.468300	-6.276960	0.722003	2.491592	-0.227338	-0.730957	0.591309	1.308350
46999		5.017392	-0.167843	-6.378369	0.719873	2.773008	-0.172078	-0.764893	0.588867	1.281982
47000		5.134287	-0.168391	-6.385069	0.668976	3.059954	-0.146788	-0.810791	0.595947	1.250977
47001		5.255740	-0.141125	-6.404773	0.589562	3.328082	-0.143554	-0.854004	0.595947	1.211182
47002		5.395261	-0.220662	-6.558619	0.622910	3.590152	-0.178954	-0.896973	0.593506	1.171631
47003		5.437466	0.021239	-6.554109	0.745736	3.839562	-0.229458	-0.945068	0.602783	1.129639
47004		5.448126	0.295695	-6.567383	0.796323	4.083678	-0.288563	-0.995361	0.605225	1.081055
47005		5.532926	0.429516	-6.560021	0.786048	4.311232	-0.355713	-1.043213	0.605225	1.023926
47006		5.850906	0.399988	-6.787792	0.602696	4.512187	-0.429766	-1.085938	0.593506	0.975830
47007		6.333460	0.188293	-6.791950	0.280696	4.717379	-0.505528	-1.142578	0.588867	0.912354
47008		6.719411	-0.082662	-6.989558	-0.004940	4.891955	-0.555098	-1.185547	0.583984	0.851074
47009		7.400247	-0.392856	-7.323545	-0.340146	5.059738	-0.582206	-1.237305	0.570068	0.783203
47010		8.210341	-1.012963	-7.806817	-0.544582	5.232730	-0.583042	-1.273193	0.553711	0.715820
47011		8.698917	-1.358409	-7.736112	-0.726409	5.392105	-0.577219	-1.320313	0.539551	0.650391
47012		8.814618	-1.471901	-7.514743	-0.804588	5.502564	-0.540905	-1.355957	0.520996	0.572021
47013		9.101826	-0.787433	-7.043617	-0.832363	5.562853	-0.466986	-1.389893	0.516357	0.500000
47014		9.794732	-0.517219	-6.502736	-0.903196	5.598440	-0.415489	-1.425537	0.497803	0.417480
47015		10.224932	-0.018849	-5.854638	-0.973236	5.596962	-0.356791	-1.438965	0.488525	0.341309
47016		10.654119	-0.494679	-5.387791	-0.982478	5.541886	-0.299112	-1.458984	0.476807	0.256592
47017		11.058411	-0.949123	-4.812463	-0.830696	5.412298	-0.240603	-1.472168	0.469971	0.182617
47018		11.344157	-1.344060	-4.508695	-0.709418	5.223195	-0.215004	-1.483643	0.470215	0.102051
47019		11.476943	-1.848565	-4.194980	-0.643065	5.019173	-0.203873	-1.489990	0.460938	0.026123
47020		11.662411	-1.892704	-3.720327	-0.523033	4.796220	-0.232037	-1.485107	0.451660	-0.043213
47021		11.684951	-1.987032	-3.241967	-0.272794	4.559853	-0.297131	-1.484863	0.442383	-0.114746
47022		11.234664	-2.393268	-2.897042	0.201294	4.270676	-0.395492	-1.479980	0.435547	-0.182129
47023		10.424632	-2.276440	-2.780155	0.748428	3.937548	-0.519962	-1.472656	0.421631	-0.251221
47024		9.825656	-2.123395	-3.974160	1.351796	3.571912	-0.619322	-1.469727	0.407715	-0.313965
47025		8.828769	-1.199055	-1.922494	1.386473	3.229965	-0.686756	-1.462402	0.391602	-0.372314
47026		6.562863	1.766905	-1.118244	1.648570	2.689334	-0.586359	-1.454590	0.368164	-0.417236
47027		6.062562	2.918431	-0.175153	1.403485	2.082308	-0.467002	-1.445313	0.363770	-0.449707
47028		5.148658	3.078350	1.050896	0.707775	1.411638	-0.307253	-1.445068	0.359131	-0.471191
47029		4.287684	1.347211	1.427850	0.105992	0.659211	-0.137687	-1.447266	0.359131	-0.475586
47030		4.819577	-1.484752	0.429043	-0.100930	-0.109589	0.015780	-1.444824	0.354248	-0.473389
47031		5.762816	-3.802248	-1.173164	0.116289	-0.772736	0.146372	-1.449707	0.358887	-0.456055
47032		6.309780	-4.617631	-2.161422	0.514222	-1.322843	0.227385	-1.461426	0.368164	-0.437012
47033		6.700705	-4.324346	-2.580223	0.951096	-1.795725	0.297073	-1.458984	0.365967	-0.408447
47034		7.824749	-3.852118	-3.204856	1.280684	-2.190276	0.385499	-1.466064	0.368164	-0.382568
47035		7.778718	-3.886701	-4.027602	1.644808	-2.544452	0.472625	-1.474854	0.365723	-0.347900
47036		11.743284	-2.265933	3.397702	1.541077	-2.504842	0.581675	-1.475586	0.379639	-0.319824
47037		19.553471	2.174654	10.086391	1.252940	-1.609240	0.673084	-1.475830	0.388916	-0.302734
47038		19.186997	1.944479	6.080748	2.015393	-1.120569	0.611233	-1.473633	0.391357	-0.300537
47039		13.366818	1.017917	1.250189	2.801081	-1.069826	0.359581	-1.480469	0.388916	-0.298340
47040		9.134475	1.730080	-3.602441	3.320559	-1.299246	0.205167	-1.475342	0.377197	-0.291504
47041		7.532441	5.446930	-2.803831	3.673175	-1.743230	0.333669	-1.479980	0.375000	-0.274170
47042		11.837892	11.602508	-0.487116	2.395777	-2.005586	0.604938	-1.480713	0.393555	-0.255127
47043		15.052253	9.649382	-1.546245	0.100874	-2.103210	0.879037	-1.485352	0.400635	-0.218262
47044		13.472345	1.739299	-1.960430	-1.452277	-2.097381	0.923832	-1.486328	0.421631	-0.184082
47045		11.083345	-8.304715	-2.587406	-1.936226	-2.149781	0.811261	-1.486816	0.437744	-0.136475
47046		10.043185	-12.244937	-3.455917	-0.553080	-2.200871	0.748117	-1.485107	0.449463	-0.106201
47047		8.789008	-10.363183	-2.857132	1.448979	-2.172289	0.786398	-1.483154	0.458740	-0.076172
47048		8.960285	-4.426769	-2.049893	2.458759	-2.058928	0.803854	-1.477051	0.477539	-0.059082
47049		8.282648	1.367940	-1.120729	1.696809	-1.828726	0.756445	-1.477295	0.484619	-0.041748
47050		7.736269	3.248740	-0.314752	0.150691	-1.619233	0.686410	-1.473389	0.496094	-0.013672
47051		9.175126	1.190439	-1.915234	-1.195301	-1.462161	0.584059	-1.469238	0.507813	0.010010
47052		10.877708	-2.180154	-3.515463	-1.532353	-1.352522	0.527037	-1.462891	0.521973	0.044434
47053		11.368126	-3.481291	-4.186120	-0.797140	-1.260144	0.474726	-1.460938	0.528809	0.072754
47054		10.796874	-1.993910	-4.054336	0.168840	-1.191381	0.432283	-1.458984	0.540527	0.081055
47055		10.322939	-0.840601	-3.766181	0.670711	-1.131821	0.399668	-1.447998	0.550049	0.091797
47056		10.606794	-0.523038	-3.124056	1.033611	-1.067809	0.407955	-1.448486	0.559326	0.106934
47057		10.605156	-0.298396	-2.185906	1.052101	-0.967089	0.416895	-1.442139	0.571045	0.111084
47058		10.370295	-0.918672	-1.600038	0.654733	-0.850543	0.398566	-1.433350	0.578125	0.115234
47059		10.206143	-1.656890	-1.209346	0.314660	-0.755134	0.368505	-1.431396	0.589844	0.128174
47060		10.254414	-2.579710	-1.805202	-0.061339	-0.636882	0.319876	-1.427002	0.594482	0.145508
47061		9.793266	-2.966338	-2.614476	-0.155295	-0.536469	0.281254	-1.418457	0.606201	0.143066
47062		9.696680	-1.435913	-3.111083	-0.134112	-0.451298	0.228052	-1.420898	0.608398	0.158203
47063		10.082118	-0.239165	-2.972744	-0.266871	-0.355844	0.196217	-1.411865	0.610840	0.164795
47064		10.398164	-0.247025	-2.646815	-0.329803	-0.290297	0.193523	-1.409668	0.615479	0.166992
47065		10.702399	-0.697470	-2.146421	-0.481398	-0.225010	0.185966	-1.409912	0.620117	0.175537
47066		10.484103	-1.874647	-1.650432	-0.475565	-0.185197	0.195360	-1.401123	0.629639	0.173340
47067		10.066081	-1.841324	-1.640660	-0.333995	-0.156326	0.175760	-1.403809	0.636475	0.179688
47068		9.423352	-1.606266	-1.335526	-0.373537	-0.125719	0.151924	-1.396973	0.638916	0.190430
47069		9.547056	-1.318611	-1.259599	-0.435807	-0.116503	0.138198	-1.401367	0.636475	0.186035
47070		9.952986	-1.736386	-1.515897	-0.476740	-0.084065	0.127882	-1.399414	0.641357	0.194824
47071		10.000986	-1.599272	-1.216237	-0.469489	-0.070356	0.142113	-1.392822	0.648193	0.198975
47072		9.865793	-0.474853	-0.543499	-0.562677	-0.081068	0.148726	-1.395264	0.653076	0.201172
47073		9.538487	-0.132829	-0.229963	-0.690189	-0.095356	0.144039	-1.390625	0.652832	0.218506
47074		9.077396	-0.838812	0.090800	-0.707875	-0.142554	0.151783	-1.388916	0.664551	0.218262
47075		9.063839	-1.544604	-0.081962	-0.563662	-0.205615	0.152183	-1.393066	0.657715	0.222656
47076		9.154851	-1.647116	0.030000	-0.401683	-0.258103	0.164824	-1.380127	0.671631	0.226807
47077		9.292883	-0.852433	0.334703	-0.353226	-0.322991	0.175342	-1.384766	0.674072	0.237549
47078		9.260572	-0.377092	0.391612	-0.524914	-0.366114	0.189256	-1.378174	0.683350	0.250488
47079		9.298389	-0.661011	0.101853	-0.651987	-0.429476	0.209057	-1.378174	0.683350	0.259277
47080		9.331067	-0.841126	-0.210359	-0.690285	-0.490806	0.237038	-1.373779	0.687988	0.272217
47081		9.367404	-1.309169	-0.533177	-0.608546	-0.550258	0.247079	-1.371582	0.687988	0.287598
47082		9.479861	-1.380963	-0.657831	-0.487852	-0.602150	0.245865	-1.369629	0.695068	0.300537
47083		9.683244	-1.606253	-0.430031	-0.345849	-0.668761	0.248364	-1.358643	0.704346	0.309082
47084		9.647226	-1.494482	-0.196652	-0.279272	-0.729845	0.253406	-1.356445	0.708984	0.324219
47085		9.392118	-1.645229	0.040427	-0.222853	-0.789249	0.253233	-1.359131	0.716064	0.337158
47086		9.301548	-2.068978	-0.047702	-0.157007	-0.861612	0.253193	-1.347900	0.720703	0.345703
47087		9.246353	-2.319961	-0.396921	0.060309	-0.925201	0.247835	-1.345703	0.725342	0.358643
47088		9.306690	-2.025654	-0.727547	0.069020	-0.968819	0.251774	-1.334717	0.734863	0.378174
47089		9.541479	-1.560788	-0.904620	0.047522	-1.026323	0.253287	-1.332520	0.737061	0.380371
47090		9.806578	-1.310176	-1.439800	-0.036024	-1.051461	0.262441	-1.321533	0.741699	0.399902
47091		9.736424	-1.331298	-1.576674	-0.170176	-1.074577	0.261030	-1.317383	0.753418	0.421387
47092		9.993620	-1.580691	-1.880015	-0.192881	-1.097176	0.243157	-1.310547	0.755859	0.438965
47093		10.144705	-1.890081	-2.049586	-0.200817	-1.112712	0.232307	-1.303955	0.760498	0.458496
47094		10.089083	-1.446447	-1.842623	-0.247714	-1.122621	0.236571	-1.297119	0.760498	0.471680
47095		9.911712	-1.133614	-1.686565	-0.352711	-1.150488	0.245778	-1.288330	0.765137	0.497559
47096		10.130794	-0.915537	-1.655743	-0.509904	-1.194392	0.251079	-1.274902	0.772217	0.519531
47097		9.850191	-1.295597	-1.907450	-0.516131	-1.227807	0.233215	-1.274658	0.769775	0.543457
47098		9.849910	-1.449341	-2.004129	-0.522418	-1.269383	0.208945	-1.259033	0.774414	0.558594
47099		9.815083	-2.184186	-2.123927	-0.475467	-1.322359	0.186771	-1.254639	0.781494	0.589111
47100		9.845584	-2.624084	-2.158103	-0.392627	-1.377884	0.159982	-1.245605	0.781250	0.606445
47101		10.165486	-2.603713	-1.947598	-0.301246	-1.451216	0.141110	-1.238525	0.774414	0.626465
47102		10.430983	-2.401981	-1.769477	-0.260501	-1.502527	0.141352	-1.220703	0.786133	0.647949
47103		10.453495	-1.988452	-1.450018	-0.279862	-1.556204	0.147669	-1.207031	0.783691	0.674316
47104		10.277146	-2.050272	-1.320951	-0.371778	-1.643070	0.161234	-1.197998	0.785889	0.700439
47105		10.437355	-1.901782	-1.220672	-0.363773	-1.743028	0.165755	-1.189209	0.790527	0.724365
47106		10.850588	-1.217107	-0.835973	-0.400231	-1.813043	0.176214	-1.173096	0.788330	0.755127
47107		10.891872	-1.469947	-1.046758	-0.516266	-1.869684	0.183568	-1.150391	0.785889	0.781494
47108		10.965407	-2.063849	-1.744542	-0.463835	-2.025234	0.205844	-1.136719	0.785889	0.810059
47109		12.510106	-0.327741	-1.153025	-0.424610	-2.078677	0.242806	-1.116455	0.792969	0.842529
47110		12.120195	0.030268	-0.533047	-0.604406	-2.086322	0.297359	-1.095459	0.783447	0.875732
47111		11.388642	-0.490388	-0.521019	-0.603726	-2.221370	0.335186	-1.077393	0.783447	0.902100
47112		12.433086	-0.778002	-0.789938	-0.429394	-2.334223	0.354580	-1.050293	0.785889	0.939209
47113		13.512594	-0.222171	-0.889523	-0.161951	-2.371926	0.380984	-1.022705	0.783447	0.963623
47114		13.397651	0.456079	-1.835789	0.031817	-2.406055	0.402865	-0.991211	0.792969	0.987549
47115		13.691668	0.579639	-1.356848	0.115833	-2.429638	0.399897	-0.970947	0.792969	1.020508
47116		15.275824	3.681735	2.595289	-0.634955	-2.438465	0.415086	-0.945557	0.783447	1.051514
47117		15.524110	3.567792	3.758226	-1.672773	-2.472109	0.488884	-0.915283	0.769531	1.097900
47118		13.271271	-1.619106	1.786150	-2.115008	-2.607969	0.534389	-0.876221	0.760010	1.139893
47119		11.323307	-5.904503	-2.008586	-2.027443	-2.829175	0.529908	-0.845703	0.736572	1.184082
47120		11.925098	-6.873701	-3.983647	-1.119018	-2.986408	0.487541	-0.808838	0.722656	1.217529
47121		12.814302	-5.553098	-3.997168	-0.982140	-2.882597	0.408878	-0.769775	0.713135	1.255127
47122		12.588435	-4.386371	-4.545839	-0.762765	-2.736242	0.335718	-0.732910	0.703857	1.284180
47123		11.480142	-4.574884	-5.492398	-0.254013	-2.532421	0.222405	-0.701172	0.703857	1.297607
47124		10.215469	-4.715901	-6.246458	0.142144	-2.329833	0.136863	-0.669189	0.699219	1.317627
47125		8.552167	-5.299307	-7.555530	0.625131	-2.222178	0.123853	-0.639893	0.706299	1.326416
47126		7.352665	-5.835782	-9.139029	0.916257	-2.173682	0.168191	-0.610596	0.713379	1.333252
47127		6.792034	-4.174348	-8.648461	0.450929	-2.048705	0.271234	-0.580811	0.711182	1.344482
47128		6.776173	-1.840064	-6.734862	-0.348938	-1.748054	0.368566	-0.553223	0.704102	1.355713
47129		8.007701	-0.373574	-5.350617	-0.963837	-1.408994	0.365131	-0.534180	0.683105	1.373779
47130		8.767074	-0.254312	-4.996390	-0.919767	-0.929248	0.270628	-0.524658	0.669189	1.383057
47131		7.867798	0.151601	-5.251978	-0.699966	-0.460149	0.129910	-0.521973	0.657471	1.385498
47132		6.815336	-0.023582	-5.492895	-0.520223	-0.038219	-0.032118	-0.523682	0.643311	1.398926
47133		5.739775	-0.047132	-5.623557	-0.283794	0.348643	-0.201243	-0.532471	0.636230	1.385742
47134		4.949573	-0.950380	-5.815924	-0.153205	0.711904	-0.341028	-0.545654	0.626953	1.381592
47135		4.513799	-1.571575	-6.001479	0.266442	1.022941	-0.406558	-0.563721	0.624512	1.370605
47136		4.581061	-1.480319	-6.023963	0.440161	1.341950	-0.432513	-0.588867	0.622070	1.354980
47137		5.019789	-0.693517	-5.975407	0.612591	1.641798	-0.417053	-0.615967	0.619629	1.341797
47138		5.745277	-0.233470	-5.879464	0.539818	1.950435	-0.379836	-0.647949	0.622070	1.321777
47139		5.599807	0.379655	-5.595769	0.390777	2.267551	-0.323290	-0.679688	0.617188	1.304199
47140		5.500795	0.110257	-5.573223	0.352678	2.549203	-0.262597	-0.718262	0.617188	1.277588
47141		5.430597	-0.475717	-6.091616	0.557902	2.800644	-0.221820	-0.754883	0.624268	1.250977
47142		5.488461	-0.256503	-6.547796	0.874453	3.024400	-0.222419	-0.800781	0.631104	1.219727
47143		5.568950	-0.127283	-6.719059	0.862360	3.269212	-0.267907	-0.828125	0.633545	1.182373
47144		5.803326	0.414068	-6.446083	0.774628	3.478438	-0.305134	-0.878174	0.633545	1.142578
47145		6.085409	0.923722	-6.085928	0.610415	3.687889	-0.337440	-0.925781	0.631104	1.107422
47146		6.343379	1.283217	-5.849783	0.388546	3.893866	-0.386317	-0.975830	0.631104	1.061035
47147		6.605121	0.947086	-5.911634	0.224925	4.085636	-0.456941	-1.018799	0.621582	1.015137
47148		6.890496	0.456006	-6.123855	0.123641	4.267076	-0.537649	-1.070801	0.616943	0.966797
47149		7.026746	-0.182458	-6.416696	0.089170	4.429029	-0.611364	-1.118164	0.603027	0.905762
47150		7.059697	-0.765805	-6.653841	0.066421	4.566847	-0.669544	-1.165527	0.595947	0.857422
47151		7.407675	-1.309186	-6.869364	0.007217	4.705762	-0.720690	-1.206055	0.584229	0.798584
47152		7.810580	-1.587880	-7.030744	0.065165	4.840808	-0.763282	-1.253174	0.570068	0.728760
47153		8.267727	-1.550882	-7.060407	0.164864	4.969638	-0.814818	-1.291260	0.553711	0.658936
47154		8.891893	-1.614982	-7.659759	0.351517	5.072702	-0.889392	-1.334229	0.544434	0.584717
47155		9.555234	-1.360158	-7.726496	0.450738	5.195609	-0.992732	-1.370117	0.530518	0.510742
47156		9.289062	-1.391549	-7.335562	0.239496	5.287474	-1.058837	-1.408203	0.516357	0.427979
47157		9.363749	-0.404833	-6.603791	0.116262	5.281939	-1.024876	-1.434570	0.495605	0.345459
47158		10.020547	0.250155	-6.002535	-0.229685	5.261654	-0.944732	-1.456787	0.479248	0.267334
47159		10.772814	0.250304	-5.272534	-0.512883	5.213552	-0.841646	-1.465088	0.460693	0.185059
47160		11.402032	-0.043251	-4.363701	-0.720988	5.125817	-0.733694	-1.487305	0.444336	0.106934
47161		11.707143	-1.156577	-4.034480	-0.806271	5.011060	-0.649465	-1.491455	0.439697	0.035156
47162		11.838581	-2.096011	-3.655471	-0.739270	4.862078	-0.584529	-1.490967	0.423584	-0.036133
47163		11.748458	-3.552686	-3.814391	-0.301629	4.649628	-0.544277	-1.492676	0.411865	-0.109863
47164		11.558629	-3.408945	-3.623315	0.308761	4.388763	-0.547657	-1.496826	0.402832	-0.181396
47165		11.083936	-3.156129	-3.269106	0.610591	4.110826	-0.608316	-1.482666	0.388916	-0.250488
47166		10.650596	-2.662905	-4.406472	1.127354	3.767039	-0.694029	-1.481934	0.370361	-0.313232
47167		9.945639	-0.608472	-2.237387	1.220929	3.472192	-0.804761	-1.467773	0.354004	-0.373535
47168		7.008505	1.614344	-1.622152	1.338171	3.001539	-0.720146	-1.462402	0.337646	-0.420898
47169		6.134590	3.165452	-0.436763	1.009324	2.405295	-0.545731	-1.455078	0.323730	-0.466309
47170		4.650566	3.000758	1.064033	0.169768	1.719715	-0.343007	-1.445801	0.321533	-0.485596
47171		3.562013	1.118123	1.832509	-0.571928	0.891992	-0.114493	-1.452881	0.323975	-0.488037
47172		3.738490	-2.536968	0.952320	-0.752086	0.031160	0.052042	-1.452881	0.326172	-0.483643
47173		5.255113	-4.922577	-0.506804	-0.251998	-0.735932	0.154770	-1.450928	0.333252	-0.470703
47174		5.918376	-5.246932	-1.598623	0.589676	-1.375167	0.230682	-1.460205	0.335449	-0.455811
47175		5.711230	-4.967360	-2.399650	1.265745	-1.937011	0.358574	-1.462646	0.340088	-0.423340
47176		5.877704	-4.810357	-3.443213	1.660004	-2.448601	0.478897	-1.478516	0.342285	-0.388672
47177		8.610803	-3.231145	0.295813	1.855752	-2.799747	0.632631	-1.481201	0.351563	-0.354004
47178		18.721777	2.416962	9.599958	1.913189	-2.130252	0.719679	-1.481445	0.358643	-0.334717
47179		21.009483	7.820875	7.238768	2.345895	-1.374401	0.564625	-1.492920	0.360840	-0.328369
47180		14.842463	4.180292	1.998874	2.463966	-1.266765	0.455050	-1.488037	0.353760	-0.319336
47181		9.590702	2.553182	-3.205328	2.384479	-1.528049	0.453825	-1.486084	0.356201	-0.299805
47182		7.299873	4.112004	-3.662500	2.133947	-2.040335	0.647853	-1.495361	0.365479	-0.274170
47183		12.753187	6.900256	-1.896588	1.262067	-2.316463	0.877880	-1.495850	0.374756	-0.243896
47184		15.021161	6.494097	-1.221856	-0.508013	-2.242973	0.993107	-1.503418	0.395752	-0.205322
47185		12.225383	-3.177587	-4.364710	-1.621941	-2.205003	1.000657	-1.504395	0.416748	-0.164551
47186		9.918656	-10.587203	-6.346566	-1.342601	-2.282419	0.960478	-1.500488	0.433105	-0.116943
47187		10.366297	-9.300517	-4.628142	-0.369626	-2.232386	0.921886	-1.494141	0.447021	-0.091064
47188		10.863896	-8.135872	-3.403072	0.956071	-2.118392	0.927604	-1.497070	0.463379	-0.056641
47189		10.765566	-2.580344	-2.940463	1.443858	-1.931116	0.815034	-1.490479	0.470459	-0.043701
47190		8.500065	0.755004	-2.946357	0.591671	-1.633582	0.674909	-1.486572	0.486816	-0.015869
47191		7.644663	1.462005	-3.145828	-0.541401	-1.412297	0.595879	-1.482422	0.498535	0.012207
47192		9.127190	-0.076841	-3.464530	-1.346169	-1.260999	0.510272	-1.471680	0.512451	0.046875
47193		11.085716	-2.522566	-3.877882	-1.271126	-1.121235	0.462602	-1.474121	0.519531	0.063965
47194		11.755751	-3.316025	-4.332135	-0.407289	-0.987423	0.441312	-1.469971	0.528809	0.081299
47195		10.890171	-2.289098	-3.831987	0.495162	-0.881971	0.421362	-1.465820	0.538086	0.089844
47196		10.315371	-0.169373	-2.986263	0.935383	-0.827739	0.415596	-1.461426	0.542969	0.089600
47197		10.624795	1.115314	-1.997313	0.723337	-0.751900	0.399863	-1.461914	0.556885	0.100342
47198		10.544550	0.199247	-1.712048	0.352954	-0.631663	0.366178	-1.453369	0.566162	0.113281
47199		9.721560	-1.172650	-1.468332	0.017828	-0.527804	0.352033	-1.449219	0.577881	0.117432
47200		9.599486	-1.862254	-0.894674	-0.369822	-0.454678	0.344694	-1.442627	0.587402	0.125977
47201		10.173596	-2.349679	-0.862543	-0.711103	-0.379008	0.296896	-1.447266	0.589600	0.136719
47202		10.169691	-2.736450	-1.320186	-0.771440	-0.342371	0.255841	-1.443115	0.594238	0.147461
47203		9.907504	-2.043237	-1.502456	-0.701836	-0.309354	0.196718	-1.438721	0.599121	0.154053
47204		9.895811	-0.781622	-1.158787	-0.642196	-0.289558	0.163454	-1.434082	0.601318	0.154053
47205		10.150951	-0.495799	-0.963431	-0.824417	-0.261359	0.163232	-1.429932	0.608398	0.173340
47206		10.000385	-1.207340	-1.016212	-0.872806	-0.261877	0.171196	-1.432373	0.615479	0.179688
47207		9.874440	-1.146195	-0.922753	-0.816632	-0.257959	0.175496	-1.425781	0.617676	0.188477
47208		9.614511	-1.064894	-0.866616	-0.923579	-0.234660	0.169736	-1.418945	0.617676	0.201660
47209		9.550728	-1.160015	-0.954280	-0.990902	-0.232288	0.161060	-1.419189	0.624756	0.216553
47210		9.688376	-1.015999	-0.902861	-1.048161	-0.217532	0.152338	-1.423828	0.629395	0.220947
47211		9.547426	-0.640079	-0.904574	-1.186189	-0.206768	0.152187	-1.416992	0.629395	0.236084
47212		9.644641	-1.006336	-0.684437	-1.353169	-0.197063	0.154960	-1.415039	0.634033	0.246826
47213		9.670081	-1.950133	-0.590658	-1.150721	-0.210693	0.141382	-1.412842	0.634033	0.262207
47214		9.425260	-3.135877	-0.744031	-0.678765	-0.252456	0.138313	-1.415039	0.634033	0.270752
47215		9.460974	-2.858896	-0.888273	-0.389845	-0.262693	0.117287	-1.410645	0.638672	0.275146
47216		9.283061	-2.159118	-0.712584	-0.196921	-0.285733	0.086732	-1.408691	0.645752	0.283691
47217		9.645113	-1.219679	-0.845693	-0.057892	-0.311027	0.075778	-1.402100	0.650391	0.288086
47218		9.877257	-0.411327	-0.860893	-0.214433	-0.312441	0.092762	-1.406738	0.652832	0.294434
47219		9.670470	-0.830022	-0.907986	-0.356588	-0.331055	0.102952	-1.399902	0.657471	0.298828
47220		9.655097	-0.523477	-0.566665	-0.399134	-0.364480	0.114478	-1.390869	0.657471	0.314209
47221		9.460042	-0.714849	0.209456	-0.539902	-0.408840	0.118199	-1.393311	0.662109	0.324707
47222		9.495172	-0.882097	0.656678	-0.488330	-0.494701	0.130602	-1.395752	0.664307	0.331299
47223		9.364141	-1.361796	0.977369	-0.477423	-0.589679	0.133125	-1.391357	0.668945	0.346436
47224		9.501295	-1.533093	0.977428	-0.415556	-0.694759	0.138713	-1.380127	0.673828	0.361572
47225		9.749158	-1.519104	0.676325	-0.253848	-0.784034	0.129887	-1.382813	0.680664	0.367920
47226		9.625621	-1.165041	0.331717	-0.181073	-0.861850	0.136183	-1.385254	0.685303	0.391846
47227		9.526368	-0.970693	-0.153025	-0.165357	-0.937835	0.147854	-1.371582	0.687744	0.405029
47228		9.690828	-0.691459	-0.209765	-0.248883	-1.000288	0.156691	-1.364746	0.687744	0.422363
47229		9.813346	-0.751543	-0.417540	-0.347397	-1.060956	0.165576	-1.364990	0.694580	0.439697
47230		9.358128	-1.067586	-0.196556	-0.364473	-1.129740	0.154198	-1.355957	0.692383	0.459473
47231		9.016592	-1.754015	-0.217271	-0.208673	-1.212690	0.144003	-1.349365	0.699219	0.480957
47232		9.058046	-1.943421	-0.481711	0.162846	-1.305441	0.145617	-1.342773	0.708740	0.498291
47233		9.218152	-1.742142	-0.891327	0.203365	-1.362284	0.147663	-1.331543	0.710938	0.513672
47234		9.301255	-1.797999	-1.666311	0.320316	-1.420517	0.143507	-1.318115	0.715820	0.531006
47235		9.584367	-1.813048	-2.094650	0.411579	-1.461373	0.138781	-1.313965	0.722656	0.543945
47236		9.622673	-1.796207	-2.370404	0.514301	-1.480671	0.129493	-1.305176	0.734375	0.561279
47237		9.599877	-1.348591	-2.469060	0.380687	-1.489152	0.146916	-1.301025	0.743652	0.578369
47238		9.553984	-1.154244	-2.785963	0.343737	-1.503115	0.148060	-1.292236	0.748535	0.600098
47239		9.640518	-1.211958	-2.974225	0.182256	-1.507423	0.126183	-1.280762	0.750732	0.617676
47240		9.969925	-1.109063	-3.202091	0.129818	-1.508830	0.110925	-1.269531	0.755371	0.641602
47241		10.220169	-0.757363	-3.646553	0.014306	-1.497688	0.109336	-1.256104	0.757813	0.661377
47242		10.396991	-0.592015	-3.460633	-0.236270	-1.480589	0.101332	-1.247070	0.762451	0.683105
47243		10.418238	-0.689549	-3.486412	-0.366401	-1.495609	0.090642	-1.235840	0.762451	0.713623
47244		10.186823	-1.034134	-3.208964	-0.461381	-1.522763	0.067666	-1.228760	0.760010	0.733398
47245		10.048581	-1.506312	-2.994793	-0.408431	-1.563667	0.032204	-1.213135	0.762451	0.761719
47246		10.164621	-1.817904	-2.615441	-0.332172	-1.632620	-0.005712	-1.203857	0.757568	0.783691
47247		10.477771	-1.885240	-1.617315	-0.260877	-1.689438	-0.032678	-1.192139	0.752930	0.810059
47248		10.729829	-2.966159	-1.560355	-0.093237	-1.775494	-0.076578	-1.176514	0.757568	0.829590
47249		11.217357	-4.406689	-1.625411	0.062796	-1.885286	-0.100294	-1.165283	0.760010	0.851563
47250		12.578802	-3.354091	-1.036994	0.254032	-1.966965	-0.075085	-1.146973	0.760010	0.882080
47251		12.834712	-2.374354	-0.129096	0.319744	-2.036071	-0.015667	-1.124512	0.764648	0.901855
47252		13.088504	-1.328625	0.406709	0.132701	-2.135417	0.062992	-1.103760	0.762207	0.930420
47253		13.690219	-0.686670	0.281752	0.217476	-2.262164	0.159157	-1.081543	0.771729	0.952148
47254		14.447310	-0.202818	-0.282603	0.359986	-2.337198	0.242090	-1.063477	0.773926	0.974121
47255		14.929990	0.563307	-0.844530	0.380235	-2.350418	0.320261	-1.036133	0.776367	1.007080
47256		15.008671	2.070327	1.841745	0.031505	-2.397756	0.352030	-1.011475	0.783447	1.031006
47257		16.162883	4.988964	4.330167	-0.373559	-2.494148	0.410678	-0.979248	0.776367	1.059814
47258		14.853000	2.285405	4.068813	-1.374533	-2.547306	0.457105	-0.944580	0.764648	1.106201
47259		13.385149	-1.753755	1.712581	-1.630656	-2.723483	0.500441	-0.914551	0.748291	1.146240
47260		12.591468	-3.913781	-1.869498	-1.322143	-2.940133	0.535624	-0.877441	0.731934	1.192627
47261		12.612817	-5.692974	-3.862644	-0.933387	-3.095296	0.523568	-0.829346	0.724854	1.225830
47262		12.884249	-5.790528	-4.587189	-0.810580	-3.091621	0.464314	-0.788086	0.717773	1.257080
47263		12.444422	-5.307054	-5.483116	-0.213426	-2.995317	0.433726	-0.756348	0.717773	1.281250
47264		11.069613	-4.055966	-5.617528	-0.199603	-2.843482	0.394899	-0.715332	0.715576	1.305664
47265		10.208115	-5.270330	-6.732790	0.140339	-2.695389	0.359637	-0.676758	0.718018	1.323486
47266		8.798162	-6.017349	-7.784035	0.755609	-2.542190	0.377637	-0.642822	0.722656	1.332520
47267		7.294783	-5.374371	-7.592422	0.651295	-2.336052	0.449702	-0.608643	0.725098	1.343750
47268		7.002617	-3.693290	-6.960087	0.130226	-1.983360	0.487176	-0.577148	0.729980	1.352783
47269		6.897406	-1.753922	-6.149833	-0.295348	-1.610192	0.482589	-0.556152	0.720703	1.364014
47270		7.380016	-1.033762	-5.309955	-0.474778	-1.186867	0.397084	-0.537354	0.701904	1.375488
47271		6.932501	-0.404041	-5.150737	-0.198421	-0.718381	0.280507	-0.527832	0.694824	1.375732
47272		6.085979	-0.222312	-5.282122	-0.109052	-0.280204	0.095747	-0.525635	0.697266	1.377930
47273		5.396599	-0.471256	-5.456184	-0.041764	0.138581	-0.121422	-0.527588	0.685547	1.373779
47274		4.910469	-1.133100	-6.005156	0.041315	0.513537	-0.335669	-0.543213	0.680664	1.369385
47275		4.463072	-1.240138	-6.397370	0.216984	0.883275	-0.504458	-0.559082	0.678467	1.360596
47276		4.295009	0.099295	-5.587108	0.195805	1.203994	-0.615221	-0.579102	0.666748	1.349854
47277		4.741713	-0.483097	-6.118327	0.310387	1.447571	-0.663860	-0.608398	0.659668	1.336670
47278		5.318790	-0.722060	-6.005480	0.350922	1.754800	-0.700077	-0.640137	0.657227	1.323242
47279		5.703690	-0.601100	-5.887652	0.655573	2.057822	-0.685640	-0.674316	0.657227	1.294434
47280		5.583669	0.189331	-5.703899	0.787648	2.351568	-0.649904	-0.710693	0.659424	1.274414
47281		5.345725	-0.237843	-5.998886	0.754999	2.616367	-0.635609	-0.744873	0.656982	1.248047
47282		5.327563	-0.347445	-6.297550	0.901410	2.870914	-0.639855	-0.786133	0.664063	1.212646
47283		5.296179	-0.074383	-6.325405	0.789064	3.138907	-0.661651	-0.831299	0.656982	1.181885
47284		5.323337	-0.466539	-6.435053	0.663308	3.397195	-0.689525	-0.881348	0.656982	1.142090
47285		5.301710	-0.481485	-6.456947	0.769874	3.640987	-0.731834	-0.924561	0.656982	1.095947
47286		5.303794	-0.498004	-6.616793	0.921668	3.877098	-0.799155	-0.976563	0.649902	1.047607
47287		5.298628	-0.433426	-6.836346	0.995449	4.116081	-0.902505	-1.028809	0.649902	0.997070
47288		5.392190	-0.588184	-7.037570	1.014365	4.328764	-1.005892	-1.074219	0.645020	0.939941
47289		5.872586	-0.567360	-7.119510	0.873181	4.539183	-1.106974	-1.130615	0.633301	0.872314
47290		6.338157	-0.695401	-7.146687	0.607046	4.745621	-1.181541	-1.182617	0.624023	0.811035
47291		6.879376	-1.022374	-7.220783	0.400029	4.945894	-1.218384	-1.223145	0.612305	0.745605
47292		7.432501	-1.383924	-7.430014	0.292720	5.146102	-1.230421	-1.270020	0.593506	0.680176
47293		7.839943	-1.770277	-7.894468	0.295518	5.341595	-1.247609	-1.312500	0.574951	0.601807
47294		8.632274	-1.885169	-8.190528	0.259880	5.518086	-1.301464	-1.350342	0.551514	0.519287
47295		9.370763	-1.719723	-7.975383	0.125632	5.699125	-1.336158	-1.392822	0.532959	0.440918
47296		9.957724	-1.442378	-7.579456	0.036575	5.817512	-1.347376	-1.421631	0.511963	0.345215
47297		10.521915	-0.813568	-6.833746	-0.280327	5.904844	-1.299004	-1.448242	0.493408	0.256348
47298		11.513415	-1.367914	-6.291956	-0.554914	5.908325	-1.241597	-1.469971	0.469971	0.169678
47299		12.750289	-2.042490	-5.671339	-0.460377	5.838423	-1.167971	-1.478271	0.448975	0.078613
47300		13.202253	-2.289699	-5.020771	-0.130031	5.722798	-1.104820	-1.490967	0.425781	-0.010254
47301		13.077928	-3.016546	-4.427966	0.071783	5.466282	-1.040620	-1.492676	0.411865	-0.096924
47302		12.991690	-2.862365	-4.056416	0.358483	5.165641	-0.958355	-1.487305	0.391113	-0.178955
47303		13.152875	-2.888113	-4.640481	0.751926	4.857975	-0.940354	-1.484375	0.372559	-0.263184
47304		11.500713	-0.710902	-2.821435	1.082633	4.597364	-0.911655	-1.474609	0.356201	-0.336670
47305		8.790416	0.907943	-1.944702	0.799862	4.125050	-0.863371	-1.464844	0.337646	-0.405762
47306		6.715578	2.609719	-1.589456	0.810354	3.425607	-0.712104	-1.450439	0.321533	-0.457520
47307		3.771332	3.199022	1.689915	0.055315	2.527675	-0.498292	-1.445801	0.319092	-0.489990
47308		0.163526	2.516125	4.507727	-1.021224	1.308652	-0.192775	-1.438965	0.319336	-0.494141
47309		-0.145839	-3.042870	2.414708	-1.177768	-0.040450	0.010253	-1.446289	0.330811	-0.479248
47310		2.968108	-7.763154	-1.169986	-0.074266	-1.116862	0.064971	-1.446045	0.323730	-0.461914
47311		5.412349	-8.409391	-3.579815	1.559141	-1.864609	0.082464	-1.454834	0.316650	-0.435547
47312		6.264864	-5.964851	-5.333212	2.775642	-2.426235	0.150698	-1.468262	0.312012	-0.416016
47313		7.307391	-2.328652	-5.383727	3.009452	-2.792136	0.261515	-1.477295	0.307129	-0.379150
47314		8.829876	-0.426670	-5.065841	2.740496	-2.998273	0.467876	-1.488525	0.304688	-0.340088
47315		11.780974	1.536395	1.710583	1.615813	-2.812654	0.725051	-1.495850	0.316406	-0.303467
47316		19.339530	6.223188	7.498399	1.136344	-1.891950	0.816978	-1.496338	0.327881	-0.286377
47317		18.680798	6.786656	5.629586	0.590571	-1.236108	0.716914	-1.489746	0.334961	-0.273438
47318		11.988589	2.466285	1.255016	0.296716	-1.204038	0.620013	-1.494873	0.349121	-0.251953
47319		9.558415	-1.464729	-3.333539	0.493934	-1.619636	0.552888	-1.493164	0.363037	-0.226318
47320		9.638756	-1.257871	-3.031837	0.786733	-2.130871	0.601863	-1.500244	0.369873	-0.191650
47321		12.357038	0.116950	-0.517210	0.591407	-2.326321	0.708933	-1.495850	0.374512	-0.161377
47322		13.373925	0.195012	-2.197553	0.657886	-2.359474	0.777059	-1.496582	0.393311	-0.122559
47323		11.924896	-1.990484	-5.645002	0.736792	-2.278790	0.807527	-1.494629	0.402588	-0.098877
47324		9.067955	-3.089339	-7.001077	0.721560	-2.212631	0.831248	-1.495361	0.421143	-0.062256
47325		9.326896	-1.611280	-6.549538	0.952326	-2.109133	0.864941	-1.484375	0.432861	-0.034180
47326		9.755500	-1.565838	-6.110028	0.986918	-1.882871	0.903637	-1.482910	0.449219	-0.017090
47327		9.581457	-0.454254	-5.800204	0.715790	-1.634610	0.862552	-1.476807	0.470459	0.008545
47328		9.034751	0.103876	-4.678880	-0.016776	-1.406556	0.806875	-1.472900	0.484375	0.032227
47329		9.514933	0.454809	-3.579261	-0.787235	-1.212289	0.781810	-1.468750	0.498291	0.053711
47330		10.185831	-0.637021	-2.965264	-1.503507	-1.054104	0.721988	-1.462402	0.507813	0.075195
47331		10.904447	-2.478530	-2.999856	-1.630225	-0.953734	0.624260	-1.456055	0.519531	0.103271
47332		11.348620	-4.301356	-3.030489	-1.042013	-0.880829	0.515731	-1.454102	0.531006	0.122803
47333		11.105360	-4.666051	-3.178768	-0.030780	-0.814035	0.448339	-1.445313	0.535889	0.135742
47334		10.540570	-3.295927	-3.160007	0.853212	-0.792252	0.436098	-1.441406	0.552246	0.133301
47335		10.454997	-1.398114	-2.804363	1.167567	-0.743529	0.433806	-1.434814	0.556885	0.133301
47336		10.341553	0.584289	-2.443990	1.072616	-0.642893	0.417722	-1.428467	0.573242	0.137207
47337		10.016951	1.177905	-1.542835	0.330665	-0.533621	0.403481	-1.426514	0.582764	0.143555
47338		10.138192	0.375730	-1.229564	-0.455097	-0.450670	0.386284	-1.424561	0.584961	0.150146
47339		10.375476	-1.131153	-1.578479	-0.987420	-0.382061	0.365804	-1.417969	0.596680	0.165039
47340		10.232833	-2.436938	-2.079135	-1.182497	-0.324375	0.339991	-1.422607	0.599121	0.173584
47341		9.852021	-3.136720	-2.354902	-1.028798	-0.306813	0.318228	-1.411621	0.608398	0.188721
47342		10.009371	-2.856063	-2.507917	-0.752478	-0.273605	0.276226	-1.411621	0.608398	0.199707
47343		10.002221	-2.121439	-2.580149	-0.438633	-0.214209	0.241740	-1.405273	0.615479	0.206055
47344		10.011749	-1.006677	-2.583200	-0.159769	-0.166307	0.240643	-1.405518	0.627197	0.199463
47345		9.973696	0.403924	-2.227655	-0.329079	-0.097981	0.233000	-1.403564	0.629395	0.208008
47346		9.915623	0.232653	-1.995139	-0.776320	-0.050498	0.213443	-1.394531	0.634277	0.216797
47347		9.969205	-0.948754	-2.111980	-1.040557	-0.021334	0.217594	-1.395020	0.643555	0.220947
47348		9.692961	-1.216806	-1.850024	-1.051503	0.017661	0.242616	-1.392822	0.645752	0.233887
47349		9.249197	-1.119611	-1.253662	-1.180202	0.030358	0.258965	-1.392822	0.645752	0.238281
47350		9.016822	-1.344309	-0.604568	-1.169404	0.013040	0.257612	-1.390869	0.657471	0.244385
47351		8.665037	-1.958425	-0.256284	-1.027067	-0.022882	0.241779	-1.390625	0.650391	0.253418
47352		8.002276	-2.921488	-0.437001	-1.055880	-0.047797	0.239062	-1.388916	0.666992	0.257324
47353		8.075159	-2.769689	-0.465048	-0.689184	-0.106596	0.216340	-1.384277	0.664551	0.263916
47354		8.644489	-2.313793	-0.654999	-0.440538	-0.163279	0.193924	-1.380127	0.673828	0.279053
47355		9.662659	-2.348918	-1.102596	-0.164538	-0.212813	0.173809	-1.385010	0.678711	0.274414
47356		10.589757	-1.502412	-1.315296	0.191228	-0.255321	0.170425	-1.375977	0.683350	0.278809
47357		11.225487	-0.309442	-1.312968	0.164745	-0.272314	0.146980	-1.376221	0.690430	0.282959
47358		11.254562	0.195296	-1.241361	0.022008	-0.304183	0.138101	-1.371826	0.692627	0.285156
47359		10.972151	-0.460090	-0.765975	-0.410743	-0.314565	0.135089	-1.372070	0.699707	0.289307
47360		10.231543	-2.359373	-0.312251	-0.198582	-0.356500	0.107285	-1.369873	0.699707	0.298096
47361		9.236256	-3.068548	0.779712	0.270703	-0.442485	0.090676	-1.367676	0.704346	0.304688
47362		8.200520	-3.114660	1.793914	0.284133	-0.557103	0.093580	-1.361084	0.711426	0.308838
47363		7.978105	-2.121776	2.526367	0.574395	-0.744981	0.110609	-1.356689	0.716064	0.313232
47364		8.485118	-1.210916	2.482128	0.426671	-0.885223	0.146672	-1.356934	0.720703	0.323975
47365		9.077757	-0.699840	1.492993	0.338117	-1.013850	0.185149	-1.348145	0.725342	0.332520
47366		9.135035	-0.032505	0.328289	0.234717	-1.130071	0.220312	-1.339355	0.737061	0.352051
47367		9.461021	-0.093776	-1.166451	-0.016481	-1.192634	0.234437	-1.334961	0.739502	0.371582
47368		9.772452	-0.474970	-2.043924	-0.165164	-1.221941	0.247397	-1.321289	0.739502	0.386963
47369		9.827926	-0.718026	-2.666877	-0.273019	-1.226975	0.266319	-1.323975	0.751221	0.412842
47370		9.684661	-0.478788	-2.654474	-0.406185	-1.213899	0.290687	-1.317383	0.753418	0.432373
47371		9.212010	-1.473489	-2.971223	-0.528583	-1.197004	0.292650	-1.306152	0.758057	0.443359
47372		9.397704	-1.823599	-3.334818	-0.485739	-1.188946	0.271748	-1.299316	0.760498	0.469482
47373		9.912791	-1.909031	-3.801974	-0.348579	-1.158479	0.260494	-1.288086	0.762695	0.491211
47374		10.154429	-1.577093	-4.058870	-0.283772	-1.119221	0.260423	-1.281494	0.769775	0.506348
47375		10.244220	-1.029431	-3.856443	-0.415870	-1.081287	0.269344	-1.274902	0.771973	0.525879
47376		10.351929	-0.783246	-3.295271	-0.542424	-1.062702	0.268212	-1.270752	0.781494	0.545410
47377		10.141890	-1.386506	-2.660893	-0.662940	-1.061811	0.260747	-1.259277	0.783691	0.562744
47378		9.725460	-1.607513	-2.067583	-0.624059	-1.106741	0.251696	-1.254639	0.781494	0.586914
47379		9.376929	-1.779959	-1.768448	-0.414561	-1.180127	0.231432	-1.243652	0.790771	0.604248
47380		9.197769	-2.036067	-1.530036	-0.227921	-1.270511	0.208735	-1.234619	0.792969	0.628174
47381		9.591299	-1.600132	-1.561209	-0.137129	-1.362273	0.197551	-1.218750	0.790771	0.645752
47382		9.864711	-1.493269	-1.567958	-0.029215	-1.462200	0.202602	-1.218994	0.795410	0.667480
47383		10.123838	-1.499297	-1.599294	-0.090077	-1.558124	0.210174	-1.198486	0.795410	0.693848
47384		10.404256	-1.210993	-1.418144	-0.149737	-1.660997	0.209760	-1.185059	0.802490	0.711182
47385		10.640792	-1.076052	-1.035237	-0.241702	-1.756148	0.216089	-1.176025	0.807129	0.739502
47386		10.650397	-1.172052	-1.050550	-0.205375	-1.884485	0.222376	-1.155762	0.811768	0.767822
47387		10.637681	-0.658506	-0.530845	-0.135432	-2.033728	0.240460	-1.137451	0.809326	0.791992
47388		11.206884	-0.165454	0.218199	-0.337113	-2.112640	0.242773	-1.117188	0.811768	0.822510
47389		10.916987	-1.761166	-1.383565	-0.197940	-2.294295	0.214776	-1.094482	0.811768	0.848877
47390		12.496314	-2.379783	-1.677375	0.149352	-2.464393	0.231153	-1.072021	0.823486	0.875000
47391		14.080900	-0.724981	-1.003077	0.240587	-2.436667	0.283993	-1.049561	0.828125	0.905762
47392		13.398184	-1.348232	-1.012772	0.493409	-2.501135	0.322901	-1.024658	0.832764	0.931885
47393		13.788397	-0.801231	-2.404247	0.471404	-2.572278	0.321264	-0.995605	0.844482	0.951660
47394		15.592047	-0.239316	-1.441652	0.457128	-2.574049	0.345102	-0.968262	0.844482	0.975830
47395		17.354620	3.874476	1.617601	-0.237454	-2.518409	0.481078	-0.934082	0.844482	1.010986
47396		15.791646	4.618767	3.542842	-1.418376	-2.488553	0.600501	-0.906250	0.830566	1.055176
47397		13.968748	1.609926	3.423119	-2.221827	-2.578825	0.583286	-0.873535	0.809326	1.097412
47398		12.657380	-2.303775	0.626141	-2.735617	-2.747960	0.530535	-0.843262	0.785889	1.159180
47399		12.460886	-5.910014	-2.902417	-2.201957	-2.988383	0.434525	-0.801514	0.767090	1.201416
47400		13.170534	-7.210450	-3.823312	-1.816423	-3.058009	0.347223	-0.764160	0.741455	1.243652
47401		13.924967	-6.240250	-3.385980	-1.600770	-3.009978	0.252065	-0.724854	0.725098	1.274902
47402		13.827719	-6.618750	-5.087660	-0.668990	-2.846670	0.129525	-0.690430	0.718018	1.297363
47403		13.452430	-5.276098	-5.510863	0.923683	-2.492286	0.016756	-0.658691	0.725098	1.297607
47404		11.485344	-5.093721	-6.274418	1.388457	-2.151959	-0.047465	-0.632080	0.739258	1.301758
47405		8.671931	-6.936009	-8.154016	1.875776	-2.082673	0.074807	-0.601074	0.760498	1.292969
47406		7.654469	-6.484896	-10.332342	2.411195	-2.041363	0.215053	-0.572266	0.783936	1.288574
47407		6.065092	-3.465256	-10.199035	1.116465	-1.927634	0.412770	-0.547119	0.781738	1.295410
47408		5.604387	-1.091956	-7.674586	-0.477079	-1.659126	0.595468	-0.514893	0.767822	1.311279
47409		8.040259	0.073458	-5.638993	-1.174775	-1.297469	0.632273	-0.498535	0.756104	1.326904
47410		10.099292	1.992740	-4.912501	-0.836533	-0.707672	0.556505	-0.477539	0.741943	1.338379
47411		8.960467	2.909644	-5.607440	-0.930604	-0.087799	0.412122	-0.479004	0.725586	1.338867
47412		7.405738	2.791408	-5.912828	-1.049678	0.474943	0.249384	-0.484619	0.695068	1.348145
47413		5.891360	2.266113	-5.394397	-1.280213	0.972282	0.123371	-0.500244	0.685547	1.354736
47414		5.228882	1.058330	-6.099308	-0.663899	1.324223	0.019212	-0.524414	0.666748	1.346191
47415		4.534883	-0.580108	-6.997005	-0.394808	1.796536	-0.101104	-0.547119	0.659668	1.333008
47416		4.366753	-0.592114	-7.151024	-0.049854	2.196988	-0.130898	-0.583252	0.655029	1.321777
47417		4.546326	-0.306771	-6.843193	-0.135541	2.589462	-0.106230	-0.616943	0.643311	1.299805
47418		4.627089	0.042786	-6.610882	-0.123134	2.916910	-0.016621	-0.659912	0.640869	1.284180
47419		4.627899	0.760321	-6.458837	-0.072153	3.216264	0.095692	-0.698486	0.633789	1.255615
47420		4.505700	0.909046	-6.338597	-0.249103	3.499311	0.176711	-0.737061	0.631348	1.235596
47421		4.529729	-0.084371	-6.690870	-0.300415	3.772250	0.213991	-0.786621	0.621826	1.200439
47422		4.546531	-0.764538	-7.063055	0.025086	4.015544	0.191411	-0.834229	0.617188	1.169678
47423		4.522859	-0.585301	-7.093551	0.276371	4.254590	0.096959	-0.884277	0.617188	1.123291
47424		4.233767	-0.481889	-7.290115	0.423532	4.482905	-0.026868	-0.936768	0.621826	1.070557
47425		3.867782	-0.150922	-7.379309	0.487432	4.684472	-0.140522	-0.986816	0.621826	1.019775
47426		3.882774	0.407630	-7.503720	0.542594	4.858923	-0.249885	-1.039063	0.616943	0.965088
47427		4.371693	1.064235	-7.420164	0.501489	5.041682	-0.366702	-1.093262	0.610107	0.907959
47428		4.981401	1.420231	-7.434744	0.253234	5.209887	-0.477902	-1.141113	0.607666	0.837891
47429		5.607714	1.146343	-7.579474	-0.187531	5.368948	-0.567528	-1.192627	0.591309	0.768066
47430		6.158541	0.001557	-7.971071	-0.510880	5.513684	-0.647022	-1.237793	0.579590	0.704834
47431		6.846606	-1.400456	-8.257210	-0.678594	5.641307	-0.703906	-1.282471	0.560791	0.639404
47432		7.527128	-2.714321	-8.633514	-0.573182	5.772524	-0.754344	-1.327393	0.546875	0.554443
47433		8.354432	-2.912644	-8.644343	-0.286779	5.878035	-0.808518	-1.354248	0.532959	0.469482
47434		9.158060	-2.555276	-8.254688	0.041758	5.973261	-0.871511	-1.396973	0.521240	0.382324
47435		10.038805	-2.606692	-7.973883	0.412750	6.039201	-1.003753	-1.416992	0.507324	0.282471
47436		10.299462	-1.782489	-7.306250	0.663842	6.035903	-1.117974	-1.443359	0.488770	0.186768
47437		10.768979	-1.768433	-6.245836	0.711580	5.879544	-1.209862	-1.456299	0.467773	0.093750
47438		11.936529	-1.613708	-5.147223	0.817917	5.614245	-1.252377	-1.466797	0.447021	0.004883
47439		12.680266	-1.319205	-4.719686	0.743971	5.304209	-1.239465	-1.468018	0.418945	-0.079346
47440		13.290211	-2.229924	-4.397102	0.821190	4.969088	-1.206554	-1.471924	0.405029	-0.163818
47441		12.904749	-3.509522	-3.752435	1.184018	4.577072	-1.188721	-1.466309	0.379639	-0.239258
47442		10.634310	-2.922179	-5.190377	2.182285	4.037066	-1.123532	-1.461182	0.363281	-0.321533
47443		8.920725	-0.274097	-4.442937	2.884545	3.469202	-1.036979	-1.457764	0.333008	-0.373047
47444		6.071946	2.893123	-2.234755	2.321163	2.809964	-0.908245	-1.449707	0.304932	-0.424561
47445		2.741992	7.013226	1.479533	1.094154	1.914994	-0.552264	-1.445068	0.300293	-0.454834
47446		2.495092	3.567659	3.265139	-0.505425	0.853457	-0.173071	-1.440430	0.300293	-0.452393
47447		3.047049	-2.538835	1.816928	-1.519594	-0.205204	0.111076	-1.445557	0.312012	-0.439697
47448		4.568322	-7.472697	-0.848478	-0.895377	-1.162260	0.242562	-1.448486	0.326172	-0.418457
47449		6.252541	-7.773911	-2.900128	0.367393	-1.898576	0.300431	-1.459717	0.325928	-0.388184
47450		6.683369	-5.981346	-4.336568	1.337070	-2.473590	0.399908	-1.464355	0.328125	-0.355469
47451		8.503888	-2.790922	-0.675884	1.672053	-2.832327	0.548839	-1.473877	0.335205	-0.318848
47452		18.652040	4.305351	8.570673	1.412155	-2.173133	0.641240	-1.471680	0.342041	-0.299316
47453		21.967437	9.388446	7.469145	1.269822	-1.358850	0.498741	-1.474121	0.346680	-0.280029
47454		14.868585	1.107628	2.887830	1.643950	-1.208939	0.430403	-1.476563	0.346680	-0.269043
47455		8.814711	-1.368932	-2.440344	2.278399	-1.518731	0.378584	-1.476807	0.356201	-0.254150
47456		6.802772	0.642429	-3.844831	2.675921	-2.046846	0.492099	-1.480957	0.346680	-0.236572
47457		11.435563	4.169542	-2.765957	2.297662	-2.289626	0.708498	-1.483887	0.358398	-0.208496
47458		15.144608	5.948494	-3.629580	1.169381	-2.129981	0.795734	-1.486328	0.367676	-0.178467
47459		11.716621	2.885142	-5.768534	0.177325	-1.969704	0.845996	-1.484863	0.384033	-0.146240
47460		8.029309	-2.724584	-6.224942	-0.874987	-1.912856	0.845839	-1.485596	0.402588	-0.114014
47461		9.202678	-5.569714	-5.213605	-0.987467	-1.960860	0.891381	-1.479492	0.421387	-0.079590
47462		11.812017	-5.979647	-3.990744	-0.800660	-1.870415	0.941061	-1.475586	0.439941	-0.047363
47463		12.504314	-5.362248	-3.789298	-0.070290	-1.682716	0.876763	-1.473877	0.454102	-0.021484
47464		11.064647	-2.451905	-3.863252	0.237074	-1.455910	0.696666	-1.467529	0.468018	-0.002197
47465		9.038220	-1.993924	-3.317820	0.000253	-1.245178	0.557233	-1.470215	0.477295	0.019287
47466		8.825739	-1.564809	-3.113040	-0.106705	-1.101523	0.492024	-1.463867	0.489014	0.032227
47467		10.121365	-1.525349	-3.038356	-0.312437	-0.970052	0.427714	-1.455078	0.493652	0.053955
47468		10.770199	-1.959129	-3.252871	-0.124443	-0.856527	0.399581	-1.455322	0.503174	0.064697
47469		10.833111	-1.739017	-2.282599	0.219911	-0.764528	0.398954	-1.451172	0.514893	0.070801
47470		10.744458	-1.237928	-1.700777	0.476983	-0.669526	0.369227	-1.444580	0.517090	0.077393
47471		10.396956	-1.286802	-1.765344	0.718953	-0.611018	0.322498	-1.440186	0.524170	0.081787
47472		10.025957	-0.832309	-1.727054	0.921633	-0.575478	0.295844	-1.436279	0.535889	0.083740
47473		10.035516	-0.113336	-1.351196	0.911131	-0.523665	0.295169	-1.436523	0.547607	0.081299
47474		9.883033	0.236205	-0.829172	0.486470	-0.442527	0.290556	-1.432373	0.554688	0.085449
47475		9.897047	-0.860100	-0.876450	0.004709	-0.381940	0.275341	-1.423340	0.557129	0.092041
47476		10.284817	-1.765895	-1.134774	-0.185143	-0.342882	0.285808	-1.416992	0.571045	0.102539
47477		10.534717	-1.409081	-1.039011	-0.291651	-0.296332	0.291948	-1.419434	0.573486	0.109131
47478		10.268963	-1.447177	-1.259180	-0.140667	-0.254239	0.266621	-1.417480	0.580322	0.113281
47479		10.067659	-0.451619	-1.115820	-0.129071	-0.224994	0.240475	-1.419922	0.585205	0.108887
47480		10.038543	-0.191563	-0.957019	-0.349275	-0.203111	0.233175	-1.413574	0.596924	0.115234
47481		10.021346	-0.281754	-0.322778	-0.360466	-0.221923	0.254419	-1.411621	0.603760	0.121582
47482		10.074036	0.331811	0.581287	-0.561389	-0.248759	0.266042	-1.411377	0.601563	0.128174
47483		9.543703	-0.773660	0.856364	-0.699524	-0.283775	0.244105	-1.405029	0.610840	0.145264
47484		9.053368	-1.330366	1.053793	-0.500812	-0.356590	0.231520	-1.403076	0.620361	0.147461
47485		8.716416	-1.416581	1.469972	-0.329959	-0.449175	0.242657	-1.398438	0.620117	0.158203
47486		8.830166	-1.307072	1.368310	-0.258223	-0.533829	0.247777	-1.389893	0.631836	0.173340
47487		9.092871	-0.952139	1.162453	-0.171233	-0.627536	0.274378	-1.394531	0.634277	0.175293
47488		9.236550	-0.476475	0.880230	-0.228747	-0.690115	0.285661	-1.390137	0.641357	0.188232
47489		9.172429	-0.271563	0.260158	-0.242687	-0.749971	0.308302	-1.385742	0.643555	0.201416
47490		9.091906	-0.059109	-0.068616	-0.294866	-0.788468	0.334966	-1.376953	0.653076	0.214355
47491		9.195219	-0.665063	-0.732860	-0.351668	-0.814399	0.333593	-1.372803	0.662354	0.225098
47492		9.199629	-1.592855	-1.473869	-0.213245	-0.850939	0.330927	-1.373047	0.664551	0.238037
47493		9.437325	-1.667585	-1.774282	-0.118673	-0.866029	0.321298	-1.362061	0.676270	0.255371
47494		9.915814	-1.793019	-1.731897	-0.053872	-0.868628	0.308645	-1.362549	0.685791	0.268066
47495		10.047319	-2.068280	-1.747889	0.001142	-0.867807	0.286043	-1.355713	0.690430	0.276855
47496		10.096871	-2.032028	-1.603414	0.071271	-0.869217	0.276026	-1.347168	0.699707	0.289795
47497		9.984429	-2.088584	-1.566604	0.096596	-0.869588	0.262779	-1.342529	0.699707	0.302734
47498		10.022018	-1.888120	-1.490117	0.185474	-0.876729	0.245239	-1.340576	0.706787	0.311279
47499		10.033622	-1.436070	-1.247741	0.141073	-0.880634	0.241992	-1.334229	0.720703	0.322021
47500		9.928866	-1.371662	-1.175392	0.042620	-0.889023	0.250644	-1.322754	0.720947	0.333008
47501		9.481632	-1.957490	-1.533631	0.097445	-0.902065	0.243649	-1.323242	0.727783	0.345947
47502		9.184223	-1.633617	-1.531880	0.100364	-0.938023	0.238838	-1.321045	0.734863	0.358887
47503		9.305445	-1.323939	-1.372063	0.045087	-0.968884	0.251308	-1.316650	0.734863	0.374023
47504		9.600927	-0.772353	-1.258198	-0.143729	-0.998551	0.266394	-1.305664	0.744141	0.393555
47505		9.745654	-0.775884	-1.093571	-0.400188	-1.036051	0.299058	-1.296631	0.746582	0.410889
47506		9.709630	-0.613634	-1.057616	-0.600323	-1.085957	0.332231	-1.290283	0.758301	0.426025
47507		9.675492	-0.134802	-1.146472	-0.770512	-1.131070	0.359931	-1.274414	0.760498	0.447998
47508		9.516287	-0.671882	-1.776658	-0.933789	-1.186825	0.372887	-1.270020	0.762939	0.474121
47509		9.894853	-0.689473	-2.502703	-0.910085	-1.250568	0.356821	-1.260742	0.762695	0.504639
47510		10.572013	-1.114444	-2.575749	-0.818486	-1.296615	0.319875	-1.258789	0.769775	0.528320
47511		10.816210	-1.860438	-2.538992	-0.700262	-1.330963	0.291771	-1.244873	0.765137	0.554688
47512		10.534821	-2.078803	-1.966625	-0.418983	-1.395309	0.245015	-1.234131	0.776855	0.572021
47513		10.118414	-1.910014	-1.052894	-0.310179	-1.480933	0.218166	-1.222656	0.774414	0.593994
47514		9.655879	-2.239558	-0.451957	-0.197901	-1.592035	0.213406	-1.218262	0.776611	0.617920
47515		9.049742	-2.645458	-0.147110	-0.035463	-1.724345	0.206854	-1.204590	0.779053	0.637451
47516		9.095305	-2.571924	-0.158905	0.099074	-1.861294	0.212292	-1.184326	0.781494	0.668213
47517		9.486548	-2.485717	-0.639310	0.188809	-1.991768	0.232403	-1.173584	0.797852	0.696045
47518		9.992452	-2.123219	-1.367181	0.195630	-2.102063	0.266388	-1.153076	0.800049	0.713623
47519		10.772389	-1.244368	-1.043228	0.021359	-2.177486	0.296328	-1.139648	0.804688	0.739990
47520		11.533309	-1.078531	-1.863896	-0.092252	-2.257480	0.314925	-1.112549	0.809570	0.772705
47521		12.459163	-1.738639	-2.507997	-0.050908	-2.398154	0.361656	-1.085205	0.811768	0.796875
47522		14.627894	-0.036830	-1.830205	0.148363	-2.395837	0.418856	-1.069824	0.821289	0.822998
47523		14.443272	0.873338	-1.388876	0.046845	-2.372084	0.485949	-1.042725	0.828125	0.851318
47524		13.854214	1.398638	-1.175894	-0.124377	-2.425496	0.523962	-1.018066	0.835205	0.882080
47525		14.619607	1.030095	-2.368633	-0.305330	-2.481001	0.566046	-0.981445	0.833008	0.912842
47526		15.976494	1.819483	-0.810134	-0.325079	-2.446277	0.592841	-0.963379	0.835205	0.943604
47527		15.991884	5.019284	1.963232	-0.905440	-2.503271	0.664383	-0.933594	0.828125	0.985352
47528		14.839248	3.516851	2.669664	-2.021506	-2.545776	0.666332	-0.900879	0.804688	1.025391
47529		13.999206	-0.560828	1.276352	-2.656633	-2.644620	0.631990	-0.870361	0.783691	1.091553
47530		12.749688	-5.308946	-1.423323	-2.842647	-2.832426	0.582808	-0.830566	0.757813	1.140381
47531		12.490164	-8.792319	-3.760226	-2.072925	-3.032586	0.481325	-0.798096	0.741455	1.177979
47532		13.104164	-8.740828	-5.844775	-0.699252	-3.024238	0.414319	-0.757080	0.736816	1.204834
47533		12.521452	-6.753280	-6.653775	-0.114116	-2.904660	0.403314	-0.720459	0.734619	1.227051
47534		11.169244	-5.985264	-6.591778	0.383498	-2.786968	0.405734	-0.684326	0.741699	1.244629
47535		10.008515	-5.270790	-7.009928	0.922822	-2.709642	0.428976	-0.641357	0.746338	1.255859
47536		9.586829	-3.513083	-6.749975	1.003671	-2.525248	0.439160	-0.607910	0.760498	1.262451
47537		8.998695	-1.416145	-5.214544	0.348895	-2.136633	0.471113	-0.584961	0.755859	1.278076
47538		9.390813	0.236498	-4.637769	-0.038743	-1.700061	0.472075	-0.552734	0.746582	1.287354
47539		8.266616	1.628546	-4.485802	-0.451130	-1.281451	0.502094	-0.536621	0.741943	1.298584
47540		7.035116	0.394364	-5.074460	-0.859400	-0.871978	0.494050	-0.520264	0.732422	1.309814
47541		6.489948	-0.065140	-5.273581	-0.999735	-0.496817	0.410398	-0.512695	0.716064	1.319092
47542		6.594684	-0.034853	-5.264066	-1.069711	-0.107540	0.260597	-0.509766	0.695068	1.332520
47543		6.684749	-0.011219	-5.887124	-0.999292	0.298181	0.063936	-0.515625	0.669189	1.337402
47544		6.341983	1.197832	-5.534009	-0.875481	0.726279	-0.084914	-0.521973	0.659912	1.346191
47545		5.876341	1.010452	-5.587832	-1.080682	1.108351	-0.149621	-0.546143	0.638672	1.339844
47546		5.664634	0.900417	-6.152356	-0.652860	1.397836	-0.100630	-0.570801	0.629150	1.333252
47547		5.816481	-0.095648	-6.695968	-0.443364	1.726353	-0.046879	-0.597656	0.617432	1.328857
47548		5.574614	0.167058	-6.556355	-0.310058	2.049686	0.025667	-0.629150	0.610352	1.311279
47549		5.353714	0.033240	-6.253340	-0.368258	2.331858	0.097820	-0.658447	0.603271	1.304688
47550		5.422407	0.094882	-6.191562	-0.393027	2.607136	0.135362	-0.687744	0.593750	1.282715
47551		5.727208	0.198608	-6.313549	-0.345601	2.874595	0.146472	-0.732910	0.584473	1.260742
47552		5.792677	0.025090	-6.553362	-0.239821	3.139223	0.137269	-0.771484	0.582031	1.232178
47553		5.551413	-0.388819	-6.849852	-0.038113	3.389684	0.109855	-0.814697	0.579590	1.203369
47554		5.298835	-0.708661	-7.093842	0.110618	3.612482	0.064499	-0.860107	0.579590	1.172363
47555		5.105179	-0.632582	-7.122101	0.270734	3.827315	-0.008411	-0.905518	0.574951	1.130615
47556		5.094453	-0.374432	-7.093060	0.379753	4.040472	-0.103473	-0.948486	0.572510	1.093262
47557		5.397693	-0.304960	-7.326923	0.415628	4.245751	-0.207818	-1.010010	0.572510	1.040283
47558		5.970617	-0.219719	-7.932072	0.350829	4.443779	-0.317696	-1.055176	0.567627	0.985596
47559		6.399861	-0.674955	-7.657181	-0.008092	4.663350	-0.418050	-1.100342	0.558350	0.935303
47560		6.360048	-0.881795	-7.554627	-0.052961	4.828880	-0.444045	-1.154785	0.551270	0.869385
47561		6.474467	-0.838746	-7.341705	-0.255542	4.961434	-0.445920	-1.199951	0.544189	0.812500
47562		6.650084	-1.395602	-7.363802	-0.422407	5.078650	-0.416415	-1.240479	0.534912	0.749268
47563		7.158867	-1.793291	-7.424313	-0.348172	5.173849	-0.373712	-1.283203	0.520996	0.688232
47564		7.853623	-1.525627	-7.414118	-0.160711	5.264129	-0.360188	-1.319336	0.516357	0.607422
47565		8.503536	-1.105084	-7.217449	-0.127239	5.347251	-0.385644	-1.355469	0.504639	0.526855
47566		9.143259	-1.490228	-7.276367	-0.107840	5.417638	-0.434135	-1.384766	0.497803	0.450439
47567		9.471396	-0.980771	-7.074472	-0.003493	5.443928	-0.450905	-1.409668	0.495605	0.374023
47568		9.645937	-0.246883	-6.467625	-0.125060	5.414712	-0.468956	-1.429443	0.481689	0.287109
47569		9.949808	0.021435	-5.837648	-0.415896	5.327837	-0.510262	-1.442383	0.462891	0.207031
47570		10.488749	-1.204198	-5.527843	-0.591855	5.192013	-0.586588	-1.462646	0.453613	0.130859
47571		11.425297	-1.661775	-5.136432	-0.389256	5.030466	-0.686530	-1.470947	0.437500	0.061523
47572		11.831418	-1.992552	-4.672528	-0.011968	4.855536	-0.770175	-1.475098	0.428223	-0.014404
47573		11.864672	-2.653334	-4.007134	0.532621	4.597189	-0.807597	-1.472168	0.409668	-0.094482
47574		10.805502	-3.043633	-3.647197	1.233712	4.228720	-0.817346	-1.476074	0.395752	-0.163818
47575		9.584361	-2.136121	-3.604446	1.872583	3.776699	-0.831006	-1.470703	0.374756	-0.237061
47576		9.296877	-1.091595	-5.397101	2.390201	3.295016	-0.871972	-1.467529	0.351563	-0.299561
47577		8.121304	1.738271	-2.088318	2.020929	2.924358	-0.918064	-1.457764	0.335205	-0.351318
47578		5.581098	2.803313	-1.445529	1.761222	2.306000	-0.770311	-1.454590	0.312012	-0.383301
47579		5.247056	3.567243	-0.221839	1.334318	1.592726	-0.539290	-1.456543	0.302490	-0.413574
47580		4.633385	2.476918	1.028704	0.355041	0.837295	-0.287977	-1.451904	0.302734	-0.424316
47581		4.252257	-0.406323	0.778563	-0.366867	0.018966	-0.053671	-1.452393	0.309570	-0.417969
47582		5.004409	-3.659876	-0.331830	-0.300132	-0.759007	0.118631	-1.457031	0.312012	-0.400879
47583		5.628186	-5.244879	-1.129259	0.184348	-1.409764	0.235440	-1.461670	0.318848	-0.381348
47584		6.531676	-5.776301	-2.267761	0.875118	-1.928838	0.357335	-1.466309	0.318848	-0.348877
47585		6.829367	-4.696064	-3.136155	1.618905	-2.379395	0.490163	-1.470947	0.323486	-0.316406
47586		9.327396	-2.341427	2.091255	1.440572	-2.581252	0.633437	-1.475830	0.332764	-0.286133
47587		19.268686	2.715052	9.632171	1.517421	-1.807515	0.678727	-1.476563	0.346680	-0.262695
47588		21.039428	5.493544	7.463668	1.782941	-1.094127	0.517431	-1.480957	0.346680	-0.256104
47589		14.838738	1.408261	1.954556	2.682352	-1.136787	0.384206	-1.478760	0.344482	-0.260498
47590		10.086985	0.646409	-3.949772	3.192367	-1.531367	0.313247	-1.485352	0.337402	-0.240723
47591		8.757659	4.251027	-3.730701	3.132293	-1.957795	0.443948	-1.483398	0.346680	-0.223633
47592		12.778717	8.392417	-1.965371	2.438946	-2.080904	0.666568	-1.490234	0.348877	-0.199707
47593		14.648687	9.012939	-3.543453	0.648434	-1.991271	0.864718	-1.484131	0.365234	-0.163086
47594		11.353551	2.617726	-7.015881	-1.038852	-2.028801	1.044255	-1.484863	0.386230	-0.124512
47595		9.479565	-2.647969	-4.816901	-2.020658	-2.159161	1.104531	-1.478760	0.405029	-0.087891
47596		10.497282	-7.052463	-2.389998	-1.762126	-2.062699	0.951489	-1.479736	0.426025	-0.044922
47597		10.126616	-9.805771	-1.868853	0.145960	-1.892857	0.841098	-1.478027	0.442383	-0.023438
47598		9.745340	-7.340220	-2.788819	1.192123	-1.738257	0.778647	-1.473877	0.456299	-0.010742
47599		7.563754	-3.813584	-2.677727	1.178021	-1.565618	0.749311	-1.469971	0.470459	0.012939
47600		7.271428	-0.630019	-2.004594	0.572927	-1.399542	0.639632	-1.463379	0.475098	0.034668
47601		9.077710	-0.190219	-2.738538	-0.214983	-1.264084	0.527358	-1.454834	0.489014	0.049805
47602		11.139067	0.117678	-3.099296	-0.533201	-1.123119	0.485484	-1.453125	0.503174	0.071045
47603		11.373066	-0.634654	-3.355663	-0.406036	-1.002199	0.487166	-1.444092	0.505371	0.084229
47604		10.798085	-0.741455	-2.984563	-0.058843	-0.934914	0.462541	-1.449463	0.524170	0.103271
47605		10.555674	-0.267831	-2.158781	0.233697	-0.890350	0.417418	-1.438232	0.528809	0.114258
47606		10.771700	-0.790484	-1.882257	0.549347	-0.866715	0.401813	-1.433838	0.533447	0.122803
47607		10.636177	-1.260932	-1.498052	0.840095	-0.829606	0.389873	-1.431885	0.545166	0.131348
47608		10.525489	-0.962954	-1.078478	0.928873	-0.756283	0.363916	-1.427734	0.552246	0.137695
47609		10.009455	-0.731448	-0.631774	0.721254	-0.701236	0.347724	-1.416992	0.568604	0.144043
47610		10.097954	-1.474309	-0.605457	0.329116	-0.660542	0.330752	-1.424072	0.575684	0.152588
47611		10.253009	-1.987120	-0.719625	0.073454	-0.599848	0.324532	-1.415039	0.577881	0.156982
47612		10.195562	-1.636901	-0.811565	-0.071845	-0.560760	0.353586	-1.408691	0.589844	0.158936
47613		9.786101	-1.065688	-0.893863	-0.233184	-0.524975	0.319038	-1.402344	0.599121	0.171875
47614		9.598407	-1.159800	-1.099497	-0.321959	-0.502988	0.262952	-1.404541	0.601318	0.180420
47615		9.733560	-1.574668	-1.511969	-0.180869	-0.482927	0.250343	-1.395508	0.603760	0.187012
47616		9.753186	-1.119932	-1.315753	-0.052363	-0.488544	0.252949	-1.391357	0.613037	0.199951
47617		9.823768	-0.338313	-1.010009	-0.099395	-0.487823	0.252094	-1.389404	0.620117	0.206299
47618		9.763769	-0.266311	-0.610463	-0.237582	-0.488754	0.257819	-1.382813	0.627197	0.219238
47619		9.544841	-0.959383	-0.435461	-0.297313	-0.516920	0.263365	-1.378174	0.624756	0.221436
47620		9.399770	-1.779166	-0.679470	-0.204011	-0.542323	0.252998	-1.376709	0.643555	0.227539
47621		9.266585	-1.978349	-0.617056	-0.027382	-0.563047	0.251235	-1.370117	0.648193	0.244873
47622		9.372358	-1.953763	-1.191888	0.212295	-0.579015	0.233678	-1.367920	0.652832	0.244873
47623		9.556125	-1.623306	-1.663160	0.262402	-0.582195	0.234693	-1.367920	0.652832	0.251465
47624		9.881776	-0.612244	-1.954345	0.243503	-0.571699	0.236679	-1.359131	0.662354	0.253418
47625		9.873439	0.070091	-2.006998	0.050603	-0.549413	0.258155	-1.354980	0.666992	0.264160
47626		9.726528	0.176538	-1.814494	-0.228490	-0.531206	0.267198	-1.353027	0.678711	0.268311
47627		9.666171	-0.593480	-1.858336	-0.388754	-0.538738	0.271172	-1.348877	0.685791	0.276855
47628		9.644804	-1.128265	-1.533702	-0.379277	-0.554147	0.264995	-1.346680	0.687988	0.292236
47629		9.631917	-1.433486	-1.451432	-0.287710	-0.559743	0.263486	-1.344482	0.695068	0.300781
47630		9.414515	-1.525468	-1.484395	-0.241472	-0.575728	0.268099	-1.337891	0.695068	0.313965
47631		9.315090	-1.509623	-1.482781	-0.236583	-0.590706	0.275795	-1.335693	0.702148	0.322510
47632		9.192389	-1.312265	-1.372839	-0.241196	-0.606925	0.276851	-1.327148	0.713867	0.337402
47633		9.235516	-1.404649	-1.370579	-0.227231	-0.637411	0.277246	-1.324951	0.716064	0.346191
47634		9.259644	-1.252585	-1.019812	-0.275783	-0.674196	0.279631	-1.322754	0.720703	0.354736
47635		9.176593	-1.617148	-0.853998	-0.321530	-0.722631	0.276285	-1.313965	0.727783	0.365479
47636		9.354416	-2.135492	-1.056270	-0.318418	-0.776374	0.277063	-1.305420	0.737305	0.374268
47637		9.835370	-2.317861	-1.337011	-0.270163	-0.816587	0.279222	-1.302979	0.737061	0.395996
47638		10.007900	-2.231225	-1.934199	-0.253973	-0.827000	0.270877	-1.296387	0.741943	0.406738
47639		10.019435	-2.208233	-2.467659	-0.298520	-0.810474	0.258493	-1.291992	0.746582	0.421875
47640		10.038798	-2.207746	-3.029435	-0.361513	-0.796687	0.257841	-1.289795	0.748779	0.441406
47641		10.011971	-1.555422	-2.607752	-0.493831	-0.793258	0.268617	-1.278809	0.755859	0.452393
47642		10.245027	-1.194114	-2.094961	-0.623500	-0.797376	0.270002	-1.269775	0.760498	0.467529
47643		9.962039	-1.057120	-1.475091	-0.759981	-0.828120	0.264628	-1.270020	0.762695	0.489258
47644		9.695045	-1.274309	-1.182106	-0.759764	-0.904586	0.267214	-1.258301	0.758057	0.506836
47645		9.641124	-1.468577	-0.864516	-0.690049	-0.994100	0.253861	-1.254150	0.765137	0.526367
47646		9.554849	-1.469138	-0.706707	-0.604315	-1.095950	0.244058	-1.245361	0.772217	0.554443
47647		9.545789	-1.507143	-0.787236	-0.479864	-1.207821	0.233964	-1.233887	0.769775	0.567871
47648		9.589731	-1.635654	-0.913432	-0.384096	-1.314214	0.229665	-1.233887	0.774414	0.591553
47649		9.749408	-1.604635	-0.948080	-0.339944	-1.416943	0.222925	-1.213623	0.774414	0.613525
47650		9.943953	-1.994317	-0.920308	-0.341697	-1.522839	0.203621	-1.207031	0.781494	0.633057
47651		10.028414	-1.606950	-1.267131	-0.279630	-1.628971	0.209402	-1.195557	0.783691	0.661377
47652		10.395497	-1.242004	-1.327063	-0.439337	-1.720618	0.229156	-1.177490	0.783691	0.687744
47653		10.488790	-0.900422	-0.916151	-0.648958	-1.809195	0.243169	-1.161621	0.786133	0.711670
47654		10.845703	-1.591449	-1.127394	-0.810989	-1.891053	0.230949	-1.145508	0.783691	0.744629
47655		11.394157	-2.945193	-1.903091	-0.746883	-2.042740	0.220007	-1.131592	0.771973	0.779785
47656		13.259529	-1.647802	-1.433771	-0.441459	-2.140362	0.248538	-1.109131	0.779053	0.810303
47657		13.494170	-1.128820	-0.693609	-0.393597	-2.175084	0.300446	-1.086426	0.781250	0.838867
47658		13.485714	-0.467535	-0.133233	-0.354334	-2.267840	0.337254	-1.061279	0.779053	0.865234
47659		13.963768	-0.209037	0.330188	-0.466829	-2.370001	0.373490	-1.040771	0.778809	0.904785
47660		14.830684	-0.802460	0.391129	-0.435826	-2.453579	0.438991	-1.011230	0.781250	0.935547
47661		15.334568	-0.149266	0.309609	-0.332088	-2.511341	0.523931	-0.986328	0.783691	0.963867
47662		15.813260	0.032843	-0.983248	-0.204806	-2.520490	0.598033	-0.956787	0.783691	0.992676
47663		16.464663	2.642178	1.791246	-0.545199	-2.459176	0.660934	-0.927246	0.781250	1.027832
47664		16.237198	4.266435	4.599939	-1.588617	-2.471276	0.756188	-0.896973	0.764893	1.069824
47665		14.167365	-0.520114	2.949638	-2.140251	-2.536804	0.797877	-0.864502	0.750732	1.111816
47666		11.905919	-6.556967	-0.858505	-2.188567	-2.753481	0.813239	-0.822754	0.729736	1.162842
47667		12.529088	-6.849538	-3.548593	-1.352894	-2.918816	0.842120	-0.786377	0.727295	1.191650
47668		12.815954	-5.802605	-3.225947	-1.508450	-2.828098	0.809324	-0.749268	0.710938	1.229492
47669		12.416101	-4.091289	-3.921398	-1.291207	-2.736765	0.774523	-0.712158	0.694580	1.262695
47670		11.544213	-3.826651	-5.651900	-0.765870	-2.592015	0.675405	-0.671143	0.689941	1.285156
47671		9.791172	-3.417887	-6.892322	-0.532313	-2.404714	0.616562	-0.632080	0.680664	1.307617
47672		8.274511	-4.491399	-7.843576	-0.488794	-2.242902	0.618834	-0.597412	0.671387	1.316895
47673		7.617418	-3.419483	-7.860510	-0.366014	-2.025904	0.706550	-0.565674	0.668945	1.341309
47674		7.801199	-1.253726	-6.839293	-1.017577	-1.675940	0.726429	-0.541992	0.647949	1.352783
47675		7.901013	-0.736889	-5.871546	-1.433163	-1.336629	0.627280	-0.520752	0.629150	1.370850
47676		8.228581	-0.633896	-5.498731	-1.026154	-0.981845	0.484306	-0.515381	0.608154	1.386719
47677		7.888661	-0.185798	-5.173550	-0.654835	-0.568305	0.323614	-0.503662	0.601074	1.389160
47678		7.024634	-0.658296	-5.353922	-0.318808	-0.145628	0.160534	-0.503418	0.593994	1.393555
47679		6.437209	-0.660148	-5.589972	0.021765	0.276876	0.035189	-0.514648	0.589355	1.387207
47680		5.454130	-0.924692	-5.881554	0.385946	0.669971	-0.067192	-0.521484	0.589355	1.382813
47681		4.941983	-0.923172	-6.003781	0.768260	1.046280	-0.115889	-0.542236	0.596436	1.367188
47682		4.627714	-0.524525	-6.249528	1.078196	1.403928	-0.112994	-0.558350	0.603516	1.349365
47683		4.889627	0.456834	-6.066798	1.190441	1.761418	-0.085215	-0.588867	0.622070	1.324707
47684		4.866077	0.942090	-6.274787	1.066585	2.102317	-0.066777	-0.618408	0.622070	1.302490
47685		5.520044	1.877103	-6.094187	0.804463	2.419268	-0.071629	-0.655029	0.629150	1.282471
47686		5.382402	1.819835	-5.846498	0.348515	2.751250	-0.091737	-0.686768	0.624268	1.260254
47687		5.177018	1.260625	-6.102999	0.132512	3.035316	-0.118212	-0.732178	0.624268	1.225098
47688		5.350903	0.867042	-6.141925	0.039477	3.319407	-0.163962	-0.770264	0.612549	1.211914
47689		5.692696	0.161659	-6.346229	0.045523	3.581197	-0.205898	-0.822510	0.610107	1.167725
47690		5.949999	-0.367686	-6.538168	0.215226	3.809697	-0.241259	-0.872559	0.610107	1.136719
47691		6.002670	-0.213498	-6.470715	0.409574	4.014024	-0.285393	-0.922607	0.607666	1.092773
47692		6.173938	-0.280976	-6.455422	0.332893	4.200023	-0.365579	-0.970215	0.603027	1.048828
47693		6.304328	-0.267611	-6.322396	0.309587	4.376117	-0.451101	-1.024658	0.600586	1.000244
47694		6.528208	-0.128200	-6.366510	0.279484	4.536135	-0.544849	-1.072021	0.591309	0.941406
47695		6.861775	-0.230968	-6.469975	0.265777	4.694080	-0.620626	-1.117432	0.584229	0.886475
47696		7.111990	-0.520645	-6.769283	0.275418	4.842638	-0.671861	-1.169189	0.574707	0.822998
47697		7.437533	-0.659764	-6.894178	0.243510	4.965155	-0.703405	-1.212158	0.565430	0.750977
47698		7.993391	-0.674715	-7.189179	0.198284	5.070499	-0.729057	-1.261963	0.558594	0.687500
47699		9.059433	-0.666570	-7.327127	0.091776	5.179472	-0.783601	-1.302246	0.539795	0.617920
47700		9.557274	-1.039514	-7.066459	0.018518	5.296395	-0.856142	-1.340088	0.520996	0.539551
47701		9.184013	-0.742004	-6.639051	0.062682	5.346496	-0.889502	-1.369385	0.511719	0.458984
47702		9.347001	-1.061598	-6.308532	-0.082598	5.345759	-0.862739	-1.398193	0.497803	0.380615
47703		9.432699	-1.062919	-5.850952	-0.141460	5.284968	-0.804454	-1.427002	0.476807	0.304688
47704		9.924543	-1.116102	-5.260261	-0.136104	5.190876	-0.736502	-1.447021	0.465332	0.224365
47705		10.518921	-1.167426	-4.532785	0.052447	5.059735	-0.694818	-1.462646	0.453613	0.144043
47706		10.563645	-0.873333	-3.976229	0.205118	4.901645	-0.702374	-1.471191	0.439697	0.070313
47707		10.861633	-0.924438	-3.712862	0.231736	4.707362	-0.692209	-1.479736	0.428223	-0.010010
47708		11.152667	-1.409817	-3.547749	0.284322	4.518385	-0.648002	-1.479248	0.418945	-0.081543
47709		11.570377	-1.160816	-3.476321	0.433430	4.307829	-0.614418	-1.478760	0.405029	-0.153076
47710		11.558383	-1.217441	-3.602188	0.541337	4.077450	-0.610979	-1.476074	0.393555	-0.215820
47711		10.397541	-1.308718	-3.162597	0.699456	3.814808	-0.663708	-1.473145	0.379639	-0.287354
47712		9.133493	-1.553027	-3.693134	1.049981	3.438876	-0.707493	-1.461182	0.361084	-0.341064
47713		8.002795	-0.883095	-2.960232	1.446915	3.031228	-0.731194	-1.458496	0.349365	-0.397217
47714		6.958662	0.125151	-1.662830	1.545958	2.506956	-0.691708	-1.443604	0.321533	-0.442139
47715		5.884387	1.667264	-0.993978	1.501657	1.858494	-0.569951	-1.447754	0.312012	-0.468018
47716		5.034164	2.332730	0.180282	0.992804	1.159298	-0.349383	-1.445313	0.307373	-0.480957
47717		5.197120	0.661296	0.784308	0.482808	0.415297	-0.141958	-1.442627	0.295898	-0.491455
47718		5.622579	-1.911535	0.198656	0.421111	-0.339800	0.054582	-1.445068	0.302734	-0.480957
47719		5.623510	-3.277971	-0.857605	0.690408	-1.041796	0.198243	-1.449951	0.307373	-0.470215
47720		5.533543	-3.470594	-1.890267	1.042587	-1.667450	0.315532	-1.458740	0.300293	-0.450439
47721		6.071157	-2.273681	-2.621122	1.321915	-2.209107	0.425506	-1.465820	0.307373	-0.409424
47722		7.107733	-1.129294	-3.300808	1.350013	-2.602414	0.557801	-1.475342	0.316650	-0.377197
47723		8.316343	-0.550006	-1.972349	1.377739	-2.858916	0.719014	-1.482422	0.323486	-0.340332
47724		17.816964	5.010628	10.220951	0.760570	-2.169385	0.811875	-1.482910	0.337402	-0.316895
47725		23.509252	10.921963	10.689230	0.130372	-1.110436	0.593098	-1.483398	0.346680	-0.297607
47726		14.737759	-2.587455	3.759056	0.866128	-0.907029	0.477938	-1.490479	0.353760	-0.297852
47727		9.751946	-4.991079	-2.384733	1.857152	-1.381351	0.432490	-1.492676	0.353760	-0.284668
47728		8.404409	-2.496435	-4.230870	2.543593	-1.922535	0.538292	-1.492920	0.360840	-0.254395
47729		11.752864	2.876390	-1.769407	2.712724	-2.158041	0.703800	-1.502197	0.363037	-0.237305
47730		14.468727	6.786867	-1.531431	1.504210	-2.054863	0.831836	-1.502686	0.374756	-0.207031
47731		12.777253	1.718179	-5.344524	0.233585	-1.908877	0.918413	-1.500977	0.391113	-0.183350
47732		9.379113	-2.069248	-3.691050	-0.599627	-1.795249	0.875561	-1.499023	0.400391	-0.144531
47733		9.557908	-6.326304	-2.088680	-1.066660	-1.847993	0.883030	-1.495361	0.421387	-0.107910
47734		12.241059	-8.475943	-1.984732	-0.370436	-1.908937	0.992999	-1.491699	0.442383	-0.084473
47735		11.956543	-6.307193	-2.289152	0.419078	-1.816283	0.973532	-1.487549	0.456299	-0.056396
47736		9.688662	-2.821672	-2.313625	0.434015	-1.595149	0.791425	-1.492676	0.470459	-0.039551
47737		7.697337	-1.306674	-1.612864	-0.115289	-1.416055	0.640186	-1.486572	0.489014	-0.005127
47738		8.721778	-3.304442	-2.134787	-0.680036	-1.264206	0.480110	-1.477783	0.493896	0.010254
47739		10.557364	-4.884096	-3.262382	-0.544061	-1.156754	0.388141	-1.475586	0.496094	0.040527
47740		11.457584	-3.765804	-3.907054	0.285428	-1.103384	0.371895	-1.476318	0.517090	0.055420
47741		11.567571	0.029483	-2.935426	0.788834	-1.021158	0.363469	-1.469482	0.512451	0.057617
47742		11.470453	2.592261	-2.313744	0.667393	-0.914580	0.330897	-1.469971	0.528809	0.065918
47743		10.951163	2.183937	-2.351334	0.247085	-0.825226	0.301206	-1.463379	0.533447	0.076904
47744		10.683495	0.410921	-2.348902	-0.005943	-0.742798	0.318252	-1.459229	0.545166	0.089600
47745		10.302787	-1.146407	-2.391466	0.049988	-0.639827	0.326927	-1.452637	0.549805	0.096191
47746		9.704781	-2.202145	-1.898351	-0.034897	-0.540782	0.315019	-1.448242	0.554688	0.102539
47747		9.621992	-1.888474	-1.742324	-0.056482	-0.474959	0.268418	-1.448486	0.561523	0.109131
47748		9.853986	-1.024275	-1.176099	-0.249274	-0.397257	0.222792	-1.446533	0.566162	0.126221
47749		10.017691	-0.362428	-0.989150	-0.628044	-0.319077	0.202309	-1.442139	0.571045	0.128418
47750		9.734098	-0.405634	-1.046534	-0.932891	-0.270758	0.210752	-1.437988	0.580322	0.143555
47751		9.555391	-0.478497	-1.069998	-1.130335	-0.266478	0.226337	-1.433594	0.584961	0.154297
47752		9.610679	-0.845782	-0.919680	-1.176624	-0.261879	0.229361	-1.436035	0.587402	0.165039
