// General information: 
//  MT Manager version: 2021.0.0 
//  XDA version: 2021.0.0 build 5908 rev 109668 built on 2021-04-19
// Device information: 
//  DeviceId: 00B44078
//  ProductCode: MTW2-3A7G6
//  Firmware Version: 4.4.0
//  Hardware Version: 1.1.0
// Device settings: 
//  Filter Profile: human(46.1)
//  Option Flags: Orientation Smoother Disabled, Position/Velocity Smoother Disabled, Continuous Zero Rotation Update Disabled, AHS Disabled, ICC Disabled
// Coordinate system: ENU
PacketCounter	SampleTimeFine	Acc_X	Acc_Y	Acc_Z	Gyr_X	Gyr_Y	Gyr_Z	Mag_X	Mag_Y	Mag_Z
46467		-7.812699	-7.658757	6.712264	-1.387150	4.288116	-1.291574	0.954590	-0.997803	-0.960938
46468		-19.734221	-9.046151	6.482115	-1.062662	4.130446	-1.657224	1.005127	-0.982422	-0.920654
46469		-17.959207	-8.231131	10.853105	-0.602155	3.243928	-1.718865	1.053467	-0.960205	-0.885010
46470		-12.213015	-1.639156	13.467931	0.063140	2.926204	-1.395189	1.093018	-0.951416	-0.844727
46471		-9.634483	-2.178945	8.982526	0.419750	2.719857	-0.978944	1.119629	-0.949219	-0.793701
46472		-12.444984	2.089987	9.341413	0.668701	2.541955	-0.701980	1.141846	-0.953857	-0.755127
46473		-14.090648	8.146559	9.257485	0.494359	2.169999	-0.809517	1.164063	-0.953857	-0.721191
46474		-13.848593	11.157191	4.685604	-0.073990	1.573072	-0.749506	1.188232	-0.945068	-0.697998
46475		-9.243093	6.735717	5.369018	-0.418109	1.143720	-0.655904	1.203613	-0.936035	-0.678955
46476		-6.025879	4.545984	7.314675	-0.541043	0.945464	-0.680598	1.218750	-0.925049	-0.662354
46477		-5.727402	3.507327	6.470323	-0.616860	0.686040	-0.743644	1.229492	-0.916260	-0.654053
46478		-6.762619	4.296165	6.969175	-0.686683	0.500099	-0.733884	1.240479	-0.907227	-0.641357
46479		-7.389653	1.993912	7.610039	-0.733448	0.338191	-0.664538	1.242432	-0.902832	-0.635254
46480		-7.480384	0.329588	8.600069	-0.626249	0.168745	-0.564486	1.241943	-0.887451	-0.629150
46481		-7.218419	-0.547212	8.649391	-0.454567	0.076086	-0.416340	1.246094	-0.883057	-0.618652
46482		-7.217634	-0.615482	8.412305	-0.311023	0.021014	-0.274962	1.248535	-0.887451	-0.618652
46483		-6.826830	1.395464	8.104873	-0.195129	0.026797	-0.149391	1.243896	-0.880859	-0.610352
46484		-6.162564	1.197723	8.268121	-0.127449	0.029831	-0.076946	1.241943	-0.889648	-0.597412
46485		-6.172964	1.729748	7.958716	-0.059749	0.079040	-0.027826	1.241943	-0.894043	-0.590820
46486		-5.902009	3.446924	7.505736	-0.045487	0.096283	-0.002862	1.230957	-0.898682	-0.582275
46487		-6.216161	3.776006	7.098341	-0.069460	0.088792	-0.027867	1.222412	-0.905273	-0.577881
46488		-6.470987	3.338084	6.924869	-0.140969	0.027628	-0.087751	1.222412	-0.907471	-0.571533
46489		-6.556825	3.132127	6.843943	-0.217771	-0.047379	-0.119169	1.215820	-0.907471	-0.567139
46490		-6.309136	2.685185	7.012803	-0.266546	-0.091883	-0.113679	1.213623	-0.912109	-0.567139
46491		-6.349819	1.924735	7.532034	-0.220947	-0.051381	-0.121061	1.211426	-0.909912	-0.565186
46492		-6.670349	1.854740	7.409730	-0.164574	0.018271	-0.129595	1.204590	-0.905273	-0.558838
46493		-6.507613	2.159060	7.474230	-0.144775	0.035538	-0.124849	1.207031	-0.918701	-0.554199
46494		-6.475115	1.904134	7.372403	-0.125812	0.062712	-0.117305	1.198242	-0.920898	-0.556396
46495		-6.556574	1.735359	7.271729	-0.095601	0.086997	-0.090311	1.196289	-0.927734	-0.549805
46496		-6.460267	1.387875	7.338634	-0.080141	0.097052	-0.071846	1.194092	-0.927734	-0.547607
46497		-6.490130	1.632683	7.303240	-0.053110	0.120516	-0.045952	1.187744	-0.938721	-0.536865
46498		-6.713918	2.349472	7.136754	-0.050440	0.129098	-0.037054	1.183350	-0.938721	-0.543213
46499		-6.691467	2.382093	7.098063	-0.058097	0.136581	-0.042270	1.185547	-0.943115	-0.534424
46500		-6.800838	2.437914	6.816625	-0.072524	0.134921	-0.061141	1.181641	-0.956543	-0.534180
46501		-6.283817	2.510737	7.129864	-0.094949	0.121104	-0.076059	1.179443	-0.956543	-0.534180
46502		-6.433804	2.487279	7.098801	-0.119803	0.110165	-0.103099	1.170654	-0.958740	-0.534180
46503		-6.674770	1.851663	7.022808	-0.125151	0.097257	-0.101204	1.177490	-0.967773	-0.527588
46504		-6.901016	1.725953	6.953440	-0.120544	0.074959	-0.084479	1.173096	-0.972168	-0.531738
46505		-6.911971	1.984360	6.869337	-0.128498	0.062690	-0.080570	1.173096	-0.972168	-0.529541
46506		-6.523196	2.206838	7.169332	-0.126625	0.051204	-0.072771	1.168945	-0.978760	-0.533691
46507		-6.821065	2.064213	6.960880	-0.133015	0.060483	-0.088552	1.171387	-0.987549	-0.529053
46508		-6.682021	2.047410	7.095550	-0.140211	0.048575	-0.098434	1.169189	-0.987549	-0.533203
46509		-6.766602	2.105431	7.030161	-0.139609	0.052031	-0.124229	1.169434	-0.994385	-0.533203
46510		-6.819809	1.714375	7.178092	-0.147372	0.049984	-0.135880	1.174072	-0.998779	-0.532959
46511		-6.900450	1.848736	7.142278	-0.141382	0.068632	-0.138750	1.176514	-1.005371	-0.530762
46512		-6.784161	1.944894	7.290368	-0.140793	0.064133	-0.143738	1.178955	-1.009766	-0.532715
46513		-7.018196	1.966786	6.940808	-0.143412	0.081419	-0.166387	1.178711	-1.007568	-0.534912
46514		-6.700279	1.892227	7.103266	-0.136619	0.083306	-0.173214	1.181152	-1.007568	-0.532715
46515		-6.739244	1.739520	7.129560	-0.124560	0.101385	-0.178977	1.181396	-1.014160	-0.538818
46516		-6.931264	1.809418	7.109920	-0.113779	0.124303	-0.187918	1.181396	-1.020996	-0.534424
46517		-6.951285	1.879836	7.179241	-0.100701	0.156857	-0.190285	1.187988	-1.018555	-0.538574
46518		-6.841951	1.715027	7.288995	-0.083338	0.197996	-0.193780	1.195068	-1.027588	-0.534180
46519		-6.856807	1.559817	7.313296	-0.052676	0.246997	-0.193051	1.201904	-1.029785	-0.533936
46520		-6.980110	1.311335	7.205181	-0.007248	0.287694	-0.186401	1.201904	-1.031982	-0.529785
46521		-6.770844	1.252613	7.356081	0.043492	0.338899	-0.171912	1.217773	-1.040771	-0.529297
46522		-6.853631	1.327538	7.242840	0.083550	0.397000	-0.181213	1.217773	-1.038574	-0.523193
46523		-6.651498	1.400002	7.380137	0.104705	0.449096	-0.173801	1.224365	-1.042969	-0.514404
46524		-6.988023	1.522416	7.314022	0.071840	0.506231	-0.171680	1.235840	-1.049805	-0.511963
46525		-7.092155	1.536414	7.070557	0.046495	0.560858	-0.181382	1.240234	-1.047607	-0.505615
46526		-7.060115	1.746661	7.118939	0.034117	0.609205	-0.184507	1.251465	-1.054199	-0.501221
46527		-7.135341	1.584383	7.264413	0.025626	0.675348	-0.190592	1.262695	-1.058594	-0.488281
46528		-7.007297	1.474802	7.344936	0.060475	0.728725	-0.184893	1.264893	-1.058594	-0.481934
46529		-7.314474	1.287206	7.135363	0.086621	0.805927	-0.178583	1.280518	-1.056396	-0.471191
46530		-7.172710	0.976203	7.271470	0.106142	0.880775	-0.155422	1.289551	-1.062988	-0.464600
46531		-7.429049	0.910505	7.400719	0.112787	0.970122	-0.141114	1.298584	-1.067627	-0.447510
46532		-7.205372	1.399586	7.389457	0.096543	1.060998	-0.142726	1.318604	-1.069824	-0.430420
46533		-7.669398	2.234222	7.075465	0.059262	1.170561	-0.182077	1.325439	-1.072021	-0.411133
46534		-7.699065	2.433799	6.941408	0.015075	1.276740	-0.237593	1.336670	-1.074219	-0.398193
46535		-7.304926	2.917983	7.173138	-0.047749	1.362077	-0.290222	1.354248	-1.069824	-0.383545
46536		-7.951543	2.932245	6.743907	-0.145681	1.488981	-0.374206	1.371826	-1.063232	-0.362305
46537		-7.622474	2.516030	6.935937	-0.198625	1.608264	-0.440423	1.383057	-1.067627	-0.343018
46538		-7.632204	2.359818	6.946312	-0.215589	1.742835	-0.493974	1.404785	-1.052246	-0.317871
46539		-7.464125	2.042029	7.075820	-0.196869	1.884560	-0.538607	1.422119	-1.045654	-0.298828
46540		-7.677324	1.643467	6.742957	-0.194074	2.129061	-0.582118	1.439697	-1.039063	-0.271240
46541		-5.029358	1.809512	8.537815	-0.154744	2.380845	-0.694293	1.461670	-1.032471	-0.237549
46542		-10.772256	1.729930	7.544402	-0.205334	2.574211	-0.735988	1.474609	-1.021240	-0.203857
46543		-7.407998	2.427945	7.615750	-0.165819	2.801569	-0.780565	1.496338	-1.005859	-0.157471
46544		-5.270086	4.258925	8.881274	-0.146064	3.272028	-0.932395	1.522461	-0.990479	-0.102539
46545		-7.177829	4.385757	8.598959	-0.114233	3.704764	-1.234728	1.539307	-0.966064	-0.052246
46546		-7.323205	5.289626	9.094235	0.037267	4.330969	-1.714275	1.562744	-0.937500	0.023682
46547		-6.528749	3.475635	8.976661	-0.002749	4.934936	-2.003280	1.583740	-0.904297	0.103516
46548		-8.313238	0.463869	8.937431	-0.047783	5.194776	-2.053891	1.593262	-0.866943	0.195801
46549		-16.286908	-0.603596	7.605338	0.045027	5.397602	-1.999598	1.605469	-0.838135	0.281982
46550		-17.447350	1.295165	6.790258	0.304167	5.570482	-1.772618	1.606201	-0.798584	0.374268
46551		-18.701269	2.971758	7.690366	0.551490	5.577064	-1.771429	1.604980	-0.763184	0.470947
46552		-15.686719	4.165010	9.217635	0.757683	5.480916	-2.039812	1.600830	-0.717041	0.565186
46553		-14.883248	4.386731	9.533200	0.854600	5.376123	-2.316373	1.585693	-0.666260	0.650635
46554		-14.910312	5.920605	8.968758	0.865674	5.186389	-2.572280	1.574463	-0.597656	0.737793
46555		-15.387096	6.472129	8.669935	0.747741	4.866107	-2.811783	1.558838	-0.540039	0.816650
46556		-15.074814	6.311715	7.495116	0.684845	4.606004	-3.014752	1.538818	-0.473877	0.876221
46557		-13.892991	4.279896	6.252908	0.883614	4.089904	-2.900810	1.523193	-0.411865	0.937988
46558		-11.277527	1.032603	6.797347	1.325241	3.036933	-2.476349	1.505371	-0.345459	0.974121
46559		-15.088135	2.020586	8.612731	1.855064	1.562756	-2.312879	1.503418	-0.281006	0.991211
46560		-16.437427	8.178319	9.909636	2.228787	0.014891	-2.076961	1.514404	-0.214355	0.978760
46561		-10.631383	10.769845	9.362345	1.434704	-1.470968	-1.846703	1.539795	-0.169922	0.947998
46562		-3.866903	8.553960	7.985383	0.719515	-2.265145	-1.664074	1.560791	-0.127686	0.902344
46563		-1.548899	6.591892	6.960901	0.323193	-2.367625	-1.479005	1.582275	-0.096436	0.863281
46564		-0.890833	4.292050	6.093815	0.132066	-2.359158	-1.062524	1.597412	-0.078369	0.816162
46565		-0.869790	3.023664	5.424913	0.122926	-2.306889	-0.529859	1.608154	-0.064941	0.771240
46566		-1.380395	2.335761	5.138618	0.209194	-2.272525	0.046215	1.630371	-0.062744	0.737305
46567		-2.213421	1.124032	4.724231	0.398815	-2.266364	0.606540	1.639893	-0.073486	0.688721
46568		-3.426690	1.103570	4.480357	0.636748	-2.349731	1.110584	1.649414	-0.095703	0.642822
46569		-4.575460	2.167921	4.336053	0.760722	-2.494152	1.407561	1.656982	-0.115479	0.596680
46570		-5.014129	2.265798	4.285082	0.734690	-2.700831	1.536085	1.666748	-0.139648	0.550781
46571		-4.469547	1.582588	4.360688	0.662292	-2.856227	1.601732	1.674316	-0.166260	0.502686
46572		-4.516785	0.687618	4.612357	0.719147	-2.850383	1.648201	1.675293	-0.186035	0.448242
46573		-5.592812	-0.137693	4.601283	0.846282	-2.866072	1.732685	1.680664	-0.217041	0.395996
46574		-5.924205	-0.399782	4.721928	0.963912	-2.961429	1.846771	1.686279	-0.245605	0.352295
46575		-5.924561	-0.109177	4.988829	1.055380	-3.023732	1.942557	1.676514	-0.283203	0.298096
46576		-6.192833	0.250792	5.086902	1.064580	-3.038179	2.001525	1.675293	-0.312012	0.258545
46577		-6.385966	0.288146	5.326751	0.990260	-3.056151	2.052123	1.663086	-0.340820	0.206299
46578		-6.596741	0.100909	5.564665	0.918846	-3.059233	2.140326	1.657471	-0.374023	0.160645
46579		-6.986972	0.287985	5.923152	0.853043	-3.098627	2.257326	1.651855	-0.404785	0.112549
46580		-7.644977	0.244123	6.643527	0.788377	-3.160614	2.381502	1.635498	-0.442627	0.062744
46581		-9.083359	0.099325	6.892355	0.728006	-3.365883	2.498853	1.623535	-0.480225	0.012695
46582		-9.957197	-0.377121	7.000317	0.702217	-3.681827	2.536682	1.604736	-0.513184	-0.056396
46583		-10.315445	-0.691031	6.863255	0.782784	-3.945098	2.541400	1.588379	-0.552979	-0.110596
46584		-10.549501	-0.270936	6.708297	0.891132	-4.093733	2.461087	1.569092	-0.577393	-0.169434
46585		-10.704635	0.462866	6.602134	0.919923	-4.168505	2.316690	1.548096	-0.608398	-0.234375
46586		-10.983219	1.019200	6.649191	0.889056	-4.179019	2.160341	1.528809	-0.630371	-0.295410
46587		-11.442516	1.362739	6.881232	0.834594	-4.156872	2.071035	1.508057	-0.667969	-0.355957
46588		-11.845720	1.601906	7.338079	0.807122	-4.105515	2.065828	1.482178	-0.692139	-0.419189
46589		-11.950785	1.802948	7.689365	0.813094	-4.028819	2.130629	1.454102	-0.712158	-0.486816
46590		-12.199416	1.011981	8.350209	0.879428	-3.906263	2.297540	1.421875	-0.747559	-0.538818
46591		-13.019099	0.664511	8.672011	1.010591	-3.775311	2.577675	1.383301	-0.782959	-0.604004
46592		-13.962556	1.665526	8.996706	1.034227	-3.700861	2.847401	1.340088	-0.824951	-0.664551
46593		-14.702496	2.280958	9.457146	0.850688	-3.666123	3.013273	1.285889	-0.864746	-0.718750
46594		-15.336352	1.863840	9.670305	0.585303	-3.620258	3.103176	1.229248	-0.895752	-0.779785
46595		-16.007331	1.072273	9.497918	0.369651	-3.604962	3.151192	1.168213	-0.931396	-0.834229
46596		-15.794803	0.709424	9.068928	0.224645	-3.605201	3.134393	1.100098	-0.960205	-0.888916
46597		-15.087750	0.613710	8.523147	0.149646	-3.530117	3.009811	1.042969	-0.979980	-0.937500
46598		-14.633619	0.338164	7.935979	0.148354	-3.348720	2.826315	0.975098	-1.009033	-0.981689
46599		-14.758759	-0.068939	7.175779	0.199085	-3.114548	2.614090	0.917725	-1.024414	-1.019775
46600		-14.977367	-0.705756	6.287078	0.316981	-2.909688	2.451857	0.851807	-1.044434	-1.049316
46601		-14.123820	-1.088888	5.160576	0.439971	-2.700848	2.355093	0.799072	-1.064453	-1.070313
46602		-13.438108	-1.662137	3.573197	0.499493	-2.417026	2.262452	0.750488	-1.080078	-1.091309
46603		-13.137950	-2.090356	1.193947	0.624476	-2.049954	2.052242	0.704346	-1.097900	-1.101563
46604		-12.579684	-3.961431	-0.767307	0.932995	-1.524585	1.798113	0.660645	-1.122314	-1.094727
46605		-12.906254	-4.792683	-2.179453	1.352146	-0.972332	1.572109	0.636719	-1.142334	-1.096436
46606		-14.832444	-3.368597	-3.084969	1.587010	-0.553247	1.285170	0.619385	-1.157959	-1.079102
46607		-16.056224	-1.185176	-3.523625	1.374855	-0.288096	0.826930	0.608887	-1.177979	-1.065918
46608		-15.827741	-0.416642	-3.869946	0.839649	-0.056707	0.301535	0.609131	-1.186768	-1.054932
46609		-14.858926	-0.242545	-3.769539	0.263285	0.210976	-0.222643	0.613770	-1.191406	-1.046387
46610		-13.889524	-0.599479	-3.381477	-0.114622	0.521837	-0.644442	0.626709	-1.177979	-1.044434
46611		-13.737105	0.389479	-2.783496	-0.317742	0.839170	-0.923770	0.655518	-1.175781	-1.038086
46612		-12.202275	6.655633	-0.411661	-1.149945	1.269862	-1.181838	0.677002	-1.153564	-1.047119
46613		-11.899037	2.373668	-2.372445	-2.417381	1.865275	-1.659060	0.720459	-1.113525	-1.054443
46614		8.386491	0.362849	12.724197	-2.812595	2.254716	-1.260764	0.761719	-1.086670	-1.054932
46615		8.330144	28.968532	25.112214	-2.120156	2.978179	-1.214478	0.816162	-1.046631	-1.047363
46616		8.591721	3.685102	16.122793	-2.543843	3.873111	-1.862047	0.872803	-1.013428	-1.035156
46617		-6.495616	-11.010124	5.609290	-1.576697	4.871361	-1.092846	0.936523	-0.986816	-0.997314
46618		-14.425309	-8.010455	3.342899	-1.578564	5.263686	-1.655582	1.006836	-0.958008	-0.951172
46619		-21.018927	-13.177711	9.456080	-1.126622	4.532637	-2.283983	1.061279	-0.926758	-0.905029
46620		-19.335085	-6.615380	15.669437	-0.125028	3.522532	-1.868485	1.107422	-0.911377	-0.864990
46621		-14.104527	-1.163181	10.211983	0.531420	2.917107	-1.307667	1.145264	-0.915771	-0.824219
46622		-17.050849	3.946715	7.436455	0.573007	2.435855	-0.889751	1.169434	-0.906982	-0.788330
46623		-20.074197	13.451251	7.960258	0.125762	1.600775	-0.591659	1.185059	-0.909180	-0.764893
46624		-10.640196	4.710813	6.601499	-0.303994	0.871435	-0.503909	1.200684	-0.911621	-0.751953
46625		-8.250467	5.747956	7.744867	-0.329760	0.761201	-0.448067	1.218018	-0.900391	-0.735107
46626		-5.691694	4.019364	7.604559	-0.422236	0.537241	-0.459159	1.227051	-0.905029	-0.720215
46627		-5.491641	1.549361	7.564633	-0.403974	0.479618	-0.428511	1.240234	-0.898193	-0.713867
46628		-6.106132	3.013402	6.691514	-0.381780	0.345600	-0.411054	1.239990	-0.891602	-0.703369
46629		-6.437063	3.304595	7.034835	-0.423021	0.244653	-0.441438	1.250732	-0.882813	-0.697266
46630		-7.012823	2.712340	7.775566	-0.403537	0.162086	-0.397549	1.255127	-0.878418	-0.688965
46631		-7.151362	1.138748	7.907548	-0.322799	0.102580	-0.339602	1.259521	-0.876221	-0.684570
46632		-6.829077	0.206996	8.505020	-0.229231	0.074398	-0.244432	1.266357	-0.878418	-0.676025
46633		-6.290431	0.431371	8.703270	-0.108082	0.057298	-0.179918	1.266357	-0.882813	-0.663330
46634		-6.128096	1.508661	7.919157	-0.026431	0.081488	-0.167368	1.264160	-0.887207	-0.656738
46635		-6.321161	1.568462	7.462076	-0.013800	0.065654	-0.184562	1.270752	-0.882813	-0.650391
46636		-6.554148	2.848347	7.008023	-0.036441	0.038861	-0.183927	1.273193	-0.891846	-0.637451
46637		-6.517940	3.662722	6.870465	-0.105076	0.005118	-0.186297	1.264160	-0.887451	-0.631348
46638		-6.354077	3.815469	6.721335	-0.183790	-0.046997	-0.219074	1.270996	-0.889648	-0.624756
46639		-6.499120	3.099847	6.932580	-0.315037	-0.112676	-0.265613	1.273193	-0.889648	-0.616211
46640		-6.409045	2.535671	6.670200	-0.466955	-0.206806	-0.286209	1.266357	-0.882813	-0.622803
46641		-6.480701	2.478018	6.815678	-0.558107	-0.302771	-0.255884	1.259521	-0.880615	-0.620850
46642		-6.877623	2.174443	7.109903	-0.597254	-0.372553	-0.206598	1.259521	-0.880615	-0.629395
46643		-6.800431	1.684840	7.601345	-0.599654	-0.378542	-0.148951	1.252930	-0.880615	-0.629395
46644		-6.539808	0.771629	7.984106	-0.567665	-0.302351	-0.091463	1.241943	-0.887451	-0.631348
46645		-6.313329	0.350254	7.969375	-0.512855	-0.183241	-0.035354	1.241699	-0.880615	-0.629395
46646		-6.415120	0.921198	7.735288	-0.465235	-0.142633	0.000772	1.232910	-0.883057	-0.629395
46647		-6.447690	2.149789	7.413036	-0.413660	-0.144617	-0.003972	1.233154	-0.891846	-0.629150
46648		-6.548276	2.138480	7.123101	-0.356389	-0.126735	-0.025429	1.230957	-0.891846	-0.641846
46649		-6.182162	2.493386	7.199074	-0.307236	-0.101051	-0.051820	1.222168	-0.894043	-0.629150
46650		-5.992571	2.425902	7.409305	-0.295878	-0.088956	-0.085585	1.222412	-0.902832	-0.633057
46651		-5.753211	2.065919	7.268011	-0.302954	-0.063748	-0.137096	1.213379	-0.902832	-0.633301
46652		-5.927832	1.330008	7.661255	-0.281346	-0.004450	-0.124936	1.215820	-0.902832	-0.635254
46653		-6.709549	0.875196	7.460974	-0.265971	0.030144	-0.102217	1.211182	-0.898438	-0.631104
46654		-6.456754	1.329545	7.561454	-0.246374	0.037925	-0.082018	1.202637	-0.909668	-0.635254
46655		-6.504807	1.408049	7.579464	-0.226023	0.052341	-0.076528	1.207031	-0.911865	-0.633057
46656		-6.637411	1.105276	7.499692	-0.201324	0.056832	-0.070448	1.200684	-0.922852	-0.632568
46657		-6.466744	1.257455	7.358359	-0.185178	0.064751	-0.077863	1.209961	-0.927246	-0.634521
46658		-6.197699	1.689582	7.344573	-0.176691	0.068301	-0.087254	1.194336	-0.929688	-0.628174
46659		-6.300265	1.389093	7.369586	-0.167769	0.074587	-0.100464	1.194336	-0.931885	-0.634521
46660		-6.394616	1.364222	7.352596	-0.169857	0.093145	-0.111415	1.201172	-0.936279	-0.630127
46661		-6.270807	1.616230	7.561798	-0.181461	0.104638	-0.114902	1.197021	-0.945068	-0.625732
46662		-6.653316	1.235308	7.499603	-0.193143	0.127975	-0.125883	1.199463	-0.947266	-0.634033
46663		-6.442909	1.281321	7.491403	-0.186667	0.151485	-0.133686	1.204102	-0.956299	-0.631592
46664		-6.673902	1.103044	7.327167	-0.180171	0.161800	-0.146455	1.208496	-0.958496	-0.627441
46665		-6.606538	0.930807	7.265640	-0.165657	0.176836	-0.166367	1.204346	-0.960693	-0.633789
46666		-6.518523	1.092566	7.461247	-0.157778	0.186971	-0.160645	1.215576	-0.962891	-0.635742
46667		-6.223061	1.627830	7.560802	-0.157778	0.191126	-0.184368	1.206787	-0.967285	-0.625000
46668		-6.466745	1.822628	7.483320	-0.164074	0.203518	-0.225743	1.215820	-0.973877	-0.633301
46669		-6.445658	1.696845	7.553385	-0.168421	0.227995	-0.250383	1.220215	-0.971680	-0.631104
46670		-6.344633	1.337498	7.689164	-0.171067	0.261853	-0.278601	1.224609	-0.969482	-0.635498
46671		-6.862175	0.662463	7.715887	-0.166663	0.281676	-0.306753	1.231201	-0.969482	-0.626953
46672		-6.964476	0.566050	7.770833	-0.148751	0.308212	-0.310848	1.238037	-0.976074	-0.630859
46673		-6.747083	1.246287	7.875923	-0.146372	0.338249	-0.324510	1.244629	-0.973877	-0.624512
46674		-6.911234	1.194254	7.650603	-0.157020	0.372190	-0.352338	1.256104	-0.982910	-0.620117
46675		-7.010176	1.462165	7.801665	-0.212084	0.420982	-0.361288	1.260498	-0.978271	-0.615967
46676		-6.755416	0.955179	7.909860	-0.326896	0.492601	-0.355017	1.282715	-0.976074	-0.622314
46677		-6.723683	0.452975	7.961502	-0.249207	0.579172	-0.338870	1.284912	-0.973877	-0.617920
46678		-6.520900	0.326748	8.354876	-0.196443	0.715468	-0.343011	1.302734	-0.976074	-0.603027
46679		-6.934109	0.124653	8.404976	-0.153196	0.853357	-0.322846	1.311279	-0.969482	-0.601074
46680		-7.164040	0.273083	8.368371	-0.154682	0.980721	-0.318151	1.326904	-0.969482	-0.594482
46681		-7.201383	0.829969	8.293962	-0.152466	1.123639	-0.323975	1.342773	-0.976074	-0.581543
46682		-7.146247	1.200893	8.586855	-0.162287	1.262837	-0.356717	1.355957	-0.973877	-0.570801
46683		-7.242226	2.106580	8.602474	-0.153189	1.436073	-0.414226	1.373291	-0.962891	-0.549805
46684		-7.519226	2.117035	8.648503	-0.181412	1.608574	-0.492331	1.397705	-0.960693	-0.534912
46685		-7.669729	2.208186	8.104134	-0.210636	1.858035	-0.596759	1.424072	-0.954102	-0.505371
46686		-4.640657	2.219931	9.772919	-0.234782	2.153929	-0.764260	1.441406	-0.938477	-0.480225
46687		-9.675982	1.753921	10.173881	-0.294352	2.329754	-0.873276	1.463379	-0.931885	-0.454834
46688		-7.456514	1.535302	9.379009	-0.373423	2.650341	-0.966076	1.498291	-0.911865	-0.412598
46689		-5.377309	2.698607	10.235911	-0.289026	3.101887	-1.085501	1.526367	-0.892090	-0.364258
46690		-6.553404	1.300616	10.503366	-0.254681	3.515076	-1.286970	1.559082	-0.872070	-0.318115
46691		-6.460320	0.948516	10.701358	-0.249926	3.960710	-1.352955	1.582764	-0.847900	-0.257080
46692		-4.511451	0.396429	11.129531	-0.169713	4.526216	-1.449400	1.612549	-0.816895	-0.181396
46693		-4.225786	1.230531	11.945960	-0.056966	5.273669	-1.639579	1.638428	-0.792725	-0.094971
46694		-5.833644	3.803746	11.063266	-0.073284	5.958042	-1.909172	1.663818	-0.761963	0.008301
46695		-7.999322	2.845532	10.240556	-0.089826	6.500609	-2.217693	1.679688	-0.711182	0.125977
46696		-17.904708	2.091405	8.201614	-0.197998	6.660473	-2.255791	1.689453	-0.673828	0.230957
46697		-18.668480	0.760212	7.838414	-0.215661	6.471348	-2.324380	1.696533	-0.629639	0.333740
46698		-18.629894	2.909234	9.248164	-0.172131	6.154576	-2.477328	1.692383	-0.572266	0.440430
46699		-13.640406	3.687097	9.016609	-0.179821	5.973348	-2.733340	1.679199	-0.521484	0.536377
46700		-12.599056	2.839352	8.371464	0.052344	5.931589	-2.751051	1.663574	-0.459473	0.632324
46701		-13.399451	2.689918	8.077284	0.557143	5.935374	-2.748161	1.636963	-0.397705	0.729980
46702		-15.457745	2.720573	6.005248	1.326779	5.702689	-2.493393	1.605469	-0.329346	0.819092
46703		-15.300335	2.084272	4.157200	2.165721	4.946207	-2.205098	1.574219	-0.260742	0.897705
46704		-14.749640	1.984243	5.829568	2.561198	3.337155	-1.946662	1.553711	-0.187500	0.937988
46705		-20.062408	4.463872	9.532568	2.639459	0.951073	-2.017473	1.560303	-0.116455	0.933838
46706		-18.615369	10.550202	10.443986	2.308325	-1.348761	-1.925158	1.576172	-0.047607	0.895752
46707		-6.297842	10.602493	9.502494	1.268018	-2.845792	-1.669053	1.603760	-0.005127	0.835205
46708		-0.567989	7.141399	7.537084	0.669151	-3.073590	-1.420466	1.623047	0.026123	0.779297
46709		1.509191	4.674864	6.155312	0.349708	-2.839630	-0.924305	1.642334	0.048340	0.725586
46710		1.480499	3.251551	5.153234	0.298744	-2.530888	-0.219882	1.651367	0.052979	0.674561
46711		0.621416	3.087758	4.492208	0.357712	-2.215013	0.534103	1.658203	0.044189	0.640869
46712		-0.616707	2.845257	4.550475	0.388429	-2.014141	1.244689	1.669922	0.033203	0.603027
46713		-1.962731	3.605776	4.810999	0.279184	-2.035543	1.850860	1.666504	0.000000	0.567871
46714		-2.675284	3.203066	5.185290	0.085698	-2.170464	2.256083	1.679199	-0.044189	0.520508
46715		-3.421835	1.960745	5.264426	-0.008885	-2.331411	2.530814	1.674072	-0.086182	0.481445
46716		-4.025605	0.823746	5.236736	0.038359	-2.542412	2.721365	1.680420	-0.137207	0.429688
46717		-4.271759	0.305817	5.274722	0.159080	-2.750677	2.842032	1.683838	-0.177002	0.384277
46718		-4.578225	-0.041028	5.369201	0.277249	-2.950737	2.875251	1.679199	-0.230225	0.334717
46719		-5.066120	-0.661824	5.490503	0.440592	-3.049414	2.841477	1.671387	-0.263184	0.278320
46720		-6.260752	-1.079571	5.464552	0.616028	-3.199428	2.799869	1.666748	-0.318604	0.231201
46721		-7.005411	-0.857497	5.790623	0.767588	-3.402993	2.723044	1.650391	-0.358398	0.179199
46722		-7.960307	-0.672866	5.933264	0.856229	-3.615631	2.602325	1.649414	-0.395996	0.120850
46723		-8.335230	-0.936037	5.914857	0.894242	-3.847957	2.485821	1.637451	-0.433594	0.062500
46724		-7.960371	-0.951644	5.976542	0.955709	-4.002700	2.378051	1.627197	-0.455566	-0.007080
46725		-7.777099	-0.568905	6.067154	1.035117	-4.013554	2.277178	1.612793	-0.490967	-0.063477
46726		-8.270846	-0.161039	6.332722	1.079622	-3.973229	2.182881	1.602783	-0.521973	-0.119873
46727		-8.974171	-0.052050	6.748869	1.099086	-3.975645	2.129462	1.583984	-0.550781	-0.180664
46728		-9.585161	-0.353992	7.292488	1.132138	-4.034968	2.129231	1.569336	-0.577148	-0.237305
46729		-10.459262	-0.338166	7.575051	1.198052	-4.150056	2.172977	1.552734	-0.612549	-0.306396
46730		-10.784892	0.143080	7.959390	1.246616	-4.252459	2.216850	1.524658	-0.634521	-0.363281
46731		-11.399444	0.588724	8.394965	1.261085	-4.237975	2.253250	1.497314	-0.672119	-0.432373
46732		-12.592191	0.794881	8.684159	1.217368	-4.185458	2.312313	1.467285	-0.705322	-0.501709
46733		-13.894898	1.013011	8.899689	1.133610	-4.174858	2.394917	1.428467	-0.738525	-0.571045
46734		-14.879591	1.344781	9.020958	1.017025	-4.190590	2.485846	1.385254	-0.776123	-0.631592
46735		-15.270813	1.299121	9.135804	0.859997	-4.188866	2.544801	1.342041	-0.811523	-0.700928
46736		-15.214569	0.932494	9.084115	0.741328	-4.120947	2.582405	1.280762	-0.838135	-0.766357
46737		-15.190502	0.471546	9.007525	0.707460	-3.997132	2.580950	1.221924	-0.873535	-0.818604
46738		-15.630649	-0.451108	8.841130	0.801836	-3.863818	2.554239	1.169678	-0.908936	-0.868896
46739		-15.569467	-0.763087	8.409668	0.974319	-3.773448	2.516903	1.104004	-0.937988	-0.910889
46740		-15.030303	-0.189782	8.129352	1.113188	-3.656263	2.403250	1.049316	-0.962158	-0.955078
46741		-14.653910	0.337900	7.793907	1.134901	-3.418387	2.209280	0.987793	-0.989014	-0.984375
46742		-14.441884	-0.399038	7.242270	1.089485	-3.085201	2.056008	0.932861	-1.008789	-1.011719
46743		-14.601428	-1.374855	6.414968	1.048399	-2.763861	2.073662	0.880127	-1.033447	-1.036621
46744		-15.118058	0.059943	5.200189	0.840662	-2.454291	2.162471	0.827637	-1.057861	-1.051270
46745		-15.530008	0.198961	3.445857	0.333633	-2.132890	2.189429	0.781494	-1.075439	-1.074219
46746		-16.752149	-1.405738	0.323404	-0.169019	-1.838320	2.159996	0.735107	-1.082275	-1.095459
46747		-16.036914	-3.878587	-2.356073	-0.459329	-1.461620	2.061171	0.701904	-1.088867	-1.112549
46748		-15.171727	-6.140062	-4.522801	-0.524375	-0.889843	1.920259	0.673340	-1.097900	-1.125244
46749		-15.964763	-7.128653	-6.480543	-0.357137	-0.176555	1.787667	0.651123	-1.104492	-1.125000
46750		-16.000749	-5.862250	-7.055255	-0.196711	0.518275	1.515353	0.642822	-1.120117	-1.124756
46751		-15.434940	-3.284550	-6.061509	-0.294623	1.120201	1.055340	0.651611	-1.115723	-1.114014
46752		-14.831187	-0.913683	-3.971628	-0.639582	1.614837	0.486919	0.660400	-1.115723	-1.101318
46753		-13.825732	-0.703673	-2.599134	-0.982537	2.241558	-0.176262	0.695801	-1.106689	-1.093018
46754		-10.556725	-0.720249	-1.169373	-0.788610	2.693708	-0.540140	0.726563	-1.097900	-1.078125
46755		3.721583	7.145942	15.876063	-1.327965	2.840236	-0.569212	0.770752	-1.084473	-1.063477
46756		3.977046	29.356521	23.291825	-1.213632	3.086271	-1.138965	0.814453	-1.062256	-1.036133
46757		3.998092	4.092255	14.451804	-1.742090	3.363847	-2.168592	0.875488	-1.024414	-1.028564
46758		-6.445525	-6.686205	6.324317	-1.049752	3.937406	-1.603181	0.937256	-1.006836	-0.992676
46759		-14.799060	-3.982778	3.517032	-0.963532	4.201287	-1.767810	0.985352	-0.984619	-0.956787
46760		-16.006539	-5.796416	7.708427	-0.871471	3.782851	-1.944514	1.038086	-0.962402	-0.918945
46761		-15.428357	0.108750	13.537492	-0.364377	3.358868	-1.481620	1.086426	-0.948975	-0.885254
46762		-13.021325	-1.178977	9.413530	-0.070918	2.855681	-1.044951	1.115234	-0.944580	-0.849121
46763		-15.699653	-1.551914	7.701139	0.241904	2.421244	-0.780807	1.144043	-0.947021	-0.819092
46764		-18.596750	5.819088	10.164432	0.263369	1.804949	-0.761748	1.161865	-0.944824	-0.791504
46765		-11.089629	5.614938	6.200796	-0.052411	1.050762	-0.526910	1.179443	-0.944824	-0.770264
46766		-7.868801	4.758436	7.119216	-0.192318	0.848176	-0.445508	1.190674	-0.942627	-0.755371
46767		-7.080765	3.775981	7.828918	-0.252946	0.701957	-0.363440	1.206055	-0.942627	-0.748779
46768		-5.659494	1.304055	6.799584	-0.226650	0.605946	-0.379238	1.219482	-0.944824	-0.733887
46769		-6.558958	3.699307	6.562426	-0.218392	0.535337	-0.409557	1.219482	-0.942627	-0.723389
46770		-6.329091	4.729613	6.542977	-0.320290	0.365451	-0.476968	1.234863	-0.940430	-0.716797
46771		-6.192340	3.263831	7.073899	-0.382693	0.283060	-0.528869	1.243408	-0.929443	-0.702393
46772		-6.167703	2.442337	7.569524	-0.376165	0.216236	-0.556724	1.254639	-0.927002	-0.700195
46773		-6.243732	1.876518	7.695394	-0.338888	0.136140	-0.545144	1.265381	-0.920410	-0.689697
46774		-6.802284	2.019580	7.755017	-0.314116	0.051967	-0.531149	1.260742	-0.916016	-0.689941
46775		-6.724374	1.517084	7.683614	-0.287983	0.002886	-0.480019	1.273926	-0.909424	-0.675049
46776		-6.973839	1.172955	7.677438	-0.250467	-0.019163	-0.388412	1.278564	-0.913818	-0.668701
46777		-7.006562	1.219233	7.569368	-0.215426	0.003345	-0.271589	1.278564	-0.913818	-0.662354
46778		-7.075022	1.067112	7.751214	-0.184191	0.005077	-0.180869	1.278564	-0.913818	-0.653809
46779		-6.732800	1.188360	7.832451	-0.140263	0.015136	-0.118365	1.278564	-0.916016	-0.643066
46780		-6.459291	1.635754	7.672285	-0.100008	0.018354	-0.055925	1.271973	-0.920654	-0.640869
46781		-6.826658	1.773333	7.291380	-0.095091	0.011602	-0.024643	1.269775	-0.925049	-0.625977
46782		-6.569361	2.211536	7.265137	-0.107206	-0.015641	0.013894	1.276611	-0.929443	-0.621582
46783		-6.642332	2.358822	7.312167	-0.142326	-0.067890	0.027991	1.263428	-0.934082	-0.621338
46784		-6.698749	2.095893	7.280895	-0.213331	-0.146995	0.012597	1.263916	-0.945068	-0.616943
46785		-6.812683	2.525480	7.088874	-0.353081	-0.227173	0.024295	1.252686	-0.945068	-0.621094
46786		-6.504384	2.681092	7.225655	-0.445981	-0.269756	0.059362	1.248291	-0.947266	-0.618896
46787		-6.659906	1.827066	7.067377	-0.518895	-0.262649	0.080025	1.243896	-0.947266	-0.618896
46788		-6.489951	2.095061	7.116670	-0.510161	-0.228466	0.089168	1.230713	-0.951660	-0.623291
46789		-6.619734	1.845337	7.301433	-0.454534	-0.203831	0.067096	1.237549	-0.960693	-0.620850
46790		-6.421326	1.588111	7.521614	-0.384577	-0.167589	0.050940	1.219971	-0.965088	-0.627197
46791		-6.440764	1.917827	7.385190	-0.306260	-0.121438	0.033828	1.220215	-0.969482	-0.629150
46792		-6.637245	1.335044	7.096479	-0.248451	-0.091291	0.020585	1.213623	-0.978516	-0.631104
46793		-6.162335	1.626791	7.240842	-0.192085	-0.058454	0.018360	1.213867	-0.980713	-0.626709
46794		-6.453393	1.658953	7.231174	-0.139351	-0.030044	0.001856	1.211670	-0.987305	-0.624268
46795		-6.255105	2.098957	7.258104	-0.107742	-0.013716	-0.020705	1.200928	-0.996094	-0.626221
46796		-6.578535	1.872157	7.102507	-0.113889	-0.011501	-0.068197	1.194336	-0.998535	-0.624268
46797		-6.451475	2.280129	7.099215	-0.129826	-0.032806	-0.096649	1.201416	-1.007324	-0.632324
46798		-6.415307	1.905874	7.073609	-0.140123	-0.030271	-0.131881	1.199219	-1.013916	-0.625732
46799		-6.219281	1.547691	7.378783	-0.136568	-0.010303	-0.141618	1.194824	-1.013916	-0.627930
46800		-6.429453	1.574518	7.381828	-0.112690	0.008564	-0.140948	1.192871	-1.020752	-0.623535
46801		-6.618840	1.221864	7.482100	-0.095355	0.026417	-0.140453	1.190674	-1.025146	-0.629883
46802		-6.666144	1.357703	7.384061	-0.072177	0.049466	-0.130115	1.193359	-1.038330	-0.627197
46803		-6.670083	1.601074	7.318008	-0.057981	0.075604	-0.119563	1.193359	-1.038330	-0.623047
46804		-6.661655	1.997275	7.216001	-0.057132	0.098295	-0.117220	1.193848	-1.049561	-0.620605
46805		-6.680329	1.696522	7.202310	-0.069235	0.112109	-0.140572	1.193604	-1.047363	-0.622803
46806		-6.398675	1.682114	7.405711	-0.070921	0.111965	-0.149851	1.193848	-1.051758	-0.622559
46807		-6.621186	1.501110	7.347339	-0.089087	0.122438	-0.168527	1.200684	-1.056152	-0.624512
46808		-6.704287	1.888230	7.228912	-0.092231	0.115255	-0.173445	1.200928	-1.062744	-0.626465
46809		-6.548583	2.048071	7.392118	-0.111345	0.114357	-0.192836	1.203125	-1.064941	-0.630615
46810		-6.595186	1.828465	7.171173	-0.117339	0.132149	-0.223391	1.207520	-1.062744	-0.624268
46811		-6.446604	1.303013	7.597430	-0.116689	0.133283	-0.220212	1.219238	-1.078369	-0.630127
46812		-6.751463	0.844928	7.632667	-0.099591	0.167259	-0.207084	1.216797	-1.076172	-0.630371
46813		-6.717303	1.173722	7.625925	-0.078163	0.210235	-0.199555	1.219238	-1.080566	-0.625977
46814		-6.668534	1.062372	7.570699	-0.064658	0.239285	-0.196208	1.230713	-1.087158	-0.627686
46815		-6.643424	1.405608	7.429061	-0.043604	0.274878	-0.200196	1.237305	-1.084961	-0.621338
46816		-6.457838	1.634997	7.501005	-0.036022	0.305311	-0.200904	1.248779	-1.095947	-0.618896
46817		-6.710646	1.722410	7.432809	-0.063315	0.351180	-0.216669	1.257813	-1.100342	-0.618652
46818		-6.583725	1.681261	7.551622	-0.089902	0.397213	-0.226808	1.259766	-1.095947	-0.620850
46819		-6.594472	1.481255	7.750922	-0.120773	0.456023	-0.234709	1.275635	-1.100342	-0.616455
46820		-6.814952	1.197960	7.787988	-0.110767	0.530864	-0.259269	1.282227	-1.102783	-0.607910
46821		-6.977765	0.875768	7.763403	-0.076729	0.619333	-0.250748	1.291260	-1.104980	-0.601318
46822		-6.882377	0.085925	8.055149	-0.063331	0.721260	-0.226496	1.306885	-1.104980	-0.592773
46823		-6.799996	0.504665	8.199203	-0.022659	0.820315	-0.188157	1.317871	-1.104980	-0.586426
46824		-7.430279	1.045758	7.995869	-0.015457	0.926818	-0.176045	1.335938	-1.107178	-0.575684
46825		-7.254285	1.349214	7.870770	-0.025126	1.033717	-0.192540	1.344727	-1.107178	-0.564941
46826		-7.120212	1.635023	8.125854	-0.019333	1.165452	-0.211918	1.360352	-1.107178	-0.541504
46827		-7.064928	1.751618	8.160105	-0.027877	1.308936	-0.237731	1.382324	-1.102783	-0.532959
46828		-7.520384	1.637070	8.105765	-0.062092	1.457205	-0.280970	1.395752	-1.102783	-0.516113
46829		-7.462328	1.451197	7.982774	-0.060566	1.629785	-0.307770	1.417480	-1.093750	-0.499268
46830		-7.162115	1.524848	8.095143	-0.053433	1.794190	-0.333851	1.437744	-1.100586	-0.471191
46831		-6.550075	1.016527	7.582460	-0.049772	2.044694	-0.399511	1.459961	-1.100586	-0.439209
46832		-6.198282	1.278864	9.172125	-0.047100	2.223348	-0.460249	1.477295	-1.087402	-0.416260
46833		-10.559088	2.271169	7.494805	-0.113948	2.348633	-0.428283	1.499268	-1.083008	-0.377930
46834		-5.990448	3.494241	8.226542	-0.110234	2.577334	-0.520259	1.523438	-1.076416	-0.346191
46835		-6.387262	3.913656	8.440467	-0.107319	2.948457	-0.683951	1.552002	-1.065430	-0.299805
46836		-8.397411	3.249631	8.350074	-0.155721	3.185147	-0.916817	1.571289	-1.045410	-0.251221
46837		-6.990426	3.921954	8.563072	-0.200075	3.461014	-1.071337	1.599365	-1.025635	-0.194336
46838		-5.777756	3.331679	9.203993	-0.200562	3.859996	-1.300028	1.623047	-1.001221	-0.131348
46839		-5.483891	2.869662	9.687866	-0.186120	4.337944	-1.567659	1.648438	-0.963867	-0.060059
46840		-6.113252	1.788333	9.571381	-0.206557	4.875433	-1.842562	1.676025	-0.930664	0.019775
46841		-6.959527	0.780944	10.296282	-0.207121	5.433743	-2.006148	1.699219	-0.895264	0.114502
46842		-13.767969	2.585902	8.583882	-0.269727	5.778454	-2.179649	1.708496	-0.851318	0.212891
46843		-17.207642	2.736907	7.538762	-0.285937	5.822721	-2.326669	1.718018	-0.804932	0.307129
46844		-19.993813	2.454705	6.886920	-0.130181	5.728657	-2.367898	1.722656	-0.751953	0.409668
46845		-16.879729	4.093216	9.142150	-0.079034	5.525013	-2.628439	1.720459	-0.689941	0.497070
46846		-13.934405	4.223961	9.538146	-0.004101	5.483798	-2.811575	1.716064	-0.632568	0.597168
46847		-13.579657	6.625275	8.736702	0.073980	5.464927	-3.005790	1.704834	-0.568359	0.684570
46848		-14.710812	6.075676	9.318951	0.155317	5.416658	-3.210492	1.675293	-0.488770	0.766846
46849		-16.034548	4.198893	7.687180	0.649341	5.293420	-3.120001	1.653076	-0.422607	0.858154
46850		-15.234546	3.312820	5.570961	1.415417	4.670948	-2.894737	1.621094	-0.336182	0.927734
46851		-12.394471	1.542166	6.534350	1.891431	3.420314	-2.663777	1.600830	-0.263184	0.968018
46852		-18.164374	1.935504	10.047632	2.462876	1.556628	-2.333824	1.593994	-0.189941	0.980713
46853		-21.045403	10.860387	10.550480	2.653235	-0.456022	-1.969365	1.600586	-0.118652	0.950928
46854		-8.741329	12.254063	9.637991	1.675533	-2.006219	-1.512340	1.621338	-0.069824	0.911621
46855		-3.106260	10.173578	8.064425	0.845130	-2.412461	-1.309880	1.631348	-0.034180	0.859619
46856		-0.189745	7.951774	6.760141	0.178898	-2.341435	-0.954559	1.644043	-0.011719	0.814453
46857		1.131570	5.428831	5.973617	-0.122246	-2.063579	-0.455646	1.646484	-0.009521	0.767578
46858		1.049899	3.333219	5.789080	-0.073198	-1.725726	0.212581	1.651123	-0.013672	0.738037
46859		-0.397422	2.676806	5.667661	0.156798	-1.505748	0.981318	1.653809	-0.027100	0.706543
46860		-2.067671	3.222968	5.527618	0.325581	-1.528295	1.664463	1.654785	-0.058105	0.675781
46861		-3.618358	4.057000	5.774741	0.306312	-1.783165	2.140190	1.651611	-0.093506	0.640625
46862		-4.698152	3.714102	6.129848	0.201433	-2.203739	2.423005	1.657715	-0.135498	0.593018
46863		-4.401234	2.004557	6.331845	0.171191	-2.688442	2.645426	1.657227	-0.186279	0.543701
46864		-3.950957	0.123438	6.357098	0.407727	-3.056465	2.831995	1.658203	-0.217285	0.489258
46865		-4.148123	-0.583664	6.166611	0.765261	-3.325257	2.980573	1.649170	-0.274902	0.431396
46866		-4.492675	-0.639424	6.157910	1.057598	-3.584034	3.034841	1.646240	-0.319092	0.377441
46867		-4.393300	-0.999758	6.256143	1.275638	-3.776393	2.985091	1.643311	-0.363281	0.319336
46868		-4.664091	-1.484335	6.576697	1.515597	-3.859033	2.860133	1.628906	-0.392090	0.260742
46869		-6.146766	-1.717340	6.931933	1.806288	-3.923819	2.696781	1.616943	-0.431885	0.204590
46870		-7.592596	-2.046306	7.172792	2.007925	-4.103815	2.584650	1.613770	-0.462891	0.150146
46871		-8.031923	-1.684412	7.447998	2.099488	-4.346513	2.504283	1.597168	-0.498047	0.089600
46872		-7.964131	-1.079726	7.744977	2.100089	-4.531011	2.419769	1.584473	-0.518066	0.028564
46873		-7.955198	-0.619423	8.035460	2.030929	-4.610440	2.325764	1.572266	-0.544434	-0.036621
46874		-8.310413	-0.846798	8.402327	1.948816	-4.634001	2.274696	1.553223	-0.571045	-0.097412
46875		-9.014972	-1.960546	9.311352	1.930607	-4.636376	2.351635	1.543213	-0.604004	-0.162354
46876		-10.222557	-2.006262	10.157803	1.899630	-4.715176	2.526885	1.529053	-0.637207	-0.229492
46877		-11.524597	-1.684639	10.808885	1.773611	-4.863891	2.661050	1.503662	-0.677002	-0.304932
46878		-12.208695	-1.297885	11.337191	1.584606	-4.999438	2.737669	1.471680	-0.716797	-0.375977
46879		-12.914248	-0.646156	11.685152	1.348420	-5.033193	2.755152	1.437500	-0.754395	-0.455811
46880		-13.884782	0.064853	11.889000	1.081118	-4.990105	2.724973	1.396729	-0.791992	-0.544189
46881		-15.511855	0.526927	12.046951	0.837472	-4.896597	2.694027	1.344727	-0.833984	-0.623779
46882		-17.507361	0.696137	12.155990	0.647134	-4.818799	2.674080	1.286377	-0.880371	-0.697266
46883		-19.255023	0.045738	11.919328	0.583398	-4.775938	2.731542	1.232178	-0.917969	-0.774902
46884		-19.848755	-0.067277	11.073627	0.675456	-4.659232	2.842990	1.153076	-0.944580	-0.836182
46885		-20.341005	-0.009925	9.484995	0.833262	-4.377210	2.961659	1.078613	-0.982422	-0.892822
46886		-20.657162	-0.444618	7.569368	0.928574	-3.949672	3.096493	1.008545	-1.017822	-0.936768
46887		-20.957975	-0.279021	5.354726	0.796327	-3.434154	3.265596	0.938721	-1.057861	-0.978271
46888		-21.203758	0.246085	2.797735	0.366599	-2.859403	3.380878	0.865967	-1.075684	-1.005859
46889		-19.787360	-1.005679	0.048860	-0.215192	-2.173005	3.435343	0.804443	-1.102295	-1.030762
46890		-22.424779	-3.953699	-4.660305	-0.590604	-1.588043	3.504449	0.747314	-1.117920	-1.056152
46891		-24.529885	-6.356461	-9.714543	-0.397379	-1.209482	3.269805	0.705566	-1.135742	-1.066650
46892		-23.270599	-8.865029	-13.546609	0.130946	-0.724210	2.788502	0.666260	-1.160156	-1.070313
46893		-19.599381	-8.454649	-14.142026	0.655213	0.111096	2.015993	0.648926	-1.177979	-1.063477
46894		-17.667201	-2.984817	-11.677613	0.691864	1.093188	0.924842	0.656006	-1.186768	-1.044189
46895		-18.616281	4.200376	-8.550850	-0.233218	2.008052	-0.515446	0.688965	-1.177979	-1.031494
46896		-19.860800	5.191835	-5.375225	-1.622268	2.297821	-1.623813	0.737061	-1.146729	-1.027832
46897		-7.431974	0.662120	5.529746	-2.521320	2.063371	-1.874480	0.775879	-1.113525	-1.034912
46898		-1.349911	20.405409	18.617662	-2.402555	2.142574	-1.589984	0.817139	-1.075684	-1.040039
46899		10.107081	17.297054	22.725310	-2.999840	2.610445	-2.173560	0.875488	-1.026611	-1.041260
46900		-0.141358	-12.102162	10.036261	-2.293629	3.643861	-1.645708	0.927734	-0.986816	-1.012451
46901		-10.730405	-13.093809	5.885648	-1.165269	4.338413	-1.084977	0.980713	-0.975586	-0.969971
46902		-17.976978	-11.755189	6.837115	-0.765200	3.925442	-1.247966	1.028809	-0.953369	-0.942627
46903		-16.216991	-4.747029	13.317979	-0.277403	3.327789	-1.447176	1.073242	-0.955811	-0.904053
46904		-10.334386	-2.056443	12.888054	0.282683	2.971344	-1.200525	1.115234	-0.944580	-0.861816
46905		-12.885695	0.127225	8.224272	0.655093	2.833176	-0.831764	1.142090	-0.951416	-0.814697
46906		-17.604370	7.583236	7.949333	0.586530	2.380204	-0.770407	1.168701	-0.953613	-0.778564
46907		-13.661736	10.277192	5.587112	-0.018372	1.604892	-0.701829	1.188721	-0.953613	-0.752930
46908		-8.429750	4.764519	6.416659	-0.215732	1.170121	-0.569440	1.203857	-0.942627	-0.742432
46909		-6.717355	5.737130	7.654279	-0.312161	1.027186	-0.549418	1.219482	-0.944824	-0.723145
46910		-5.822941	3.538129	6.581984	-0.408428	0.751314	-0.596327	1.225830	-0.933838	-0.712891
46911		-6.031992	4.058698	6.711268	-0.486538	0.630092	-0.637971	1.247803	-0.927002	-0.700195
46912		-6.608890	2.016323	7.358232	-0.528123	0.514580	-0.594664	1.261230	-0.924805	-0.689697
46913		-6.724483	-0.030920	8.734948	-0.388427	0.440286	-0.492931	1.269775	-0.916016	-0.679199
46914		-7.557522	0.261872	8.575888	-0.201072	0.378274	-0.321458	1.276611	-0.920410	-0.668457
46915		-7.552411	1.120809	8.167964	-0.093632	0.296664	-0.212575	1.278809	-0.925049	-0.649170
46916		-7.319608	1.068649	7.978560	-0.022165	0.254964	-0.118919	1.287598	-0.922852	-0.636475
46917		-6.663407	1.762438	7.973135	0.048321	0.219324	-0.044752	1.283447	-0.933838	-0.625488
46918		-6.573637	2.075093	7.530023	0.080139	0.220311	0.000488	1.288086	-0.938477	-0.616943
46919		-6.505182	2.949239	7.335418	0.087483	0.204015	0.001796	1.290283	-0.940674	-0.608398
46920		-6.617194	3.823440	6.887325	0.043538	0.186440	-0.020262	1.286133	-0.947266	-0.595459
46921		-6.655520	3.942316	6.642503	-0.022366	0.140905	-0.050609	1.283936	-0.949707	-0.578369
46922		-7.062379	3.429311	6.378740	-0.118176	0.058333	-0.101747	1.286133	-0.949707	-0.580566
46923		-6.646148	2.415314	6.827630	-0.213285	-0.034488	-0.129006	1.286133	-0.949707	-0.567871
46924		-6.673710	1.831547	6.918494	-0.281105	-0.107525	-0.116172	1.284180	-0.956299	-0.569580
46925		-6.664315	1.888919	7.036810	-0.334923	-0.172896	-0.067345	1.281982	-0.956299	-0.569824
46926		-6.957569	1.956804	6.900820	-0.381832	-0.190221	-0.037001	1.275391	-0.958496	-0.569580
46927		-6.635992	2.167644	6.912128	-0.432023	-0.209402	-0.018106	1.268799	-0.962891	-0.573730
46928		-6.809911	2.663173	6.511322	-0.448235	-0.225146	-0.026758	1.262207	-0.965088	-0.567383
46929		-6.549329	2.319504	6.798529	-0.447758	-0.239832	-0.050807	1.260010	-0.967285	-0.573730
46930		-6.207511	2.028213	7.211358	-0.382886	-0.196243	-0.092395	1.249023	-0.969727	-0.573730
46931		-6.332284	1.760209	7.244766	-0.188881	-0.021232	-0.139148	1.253662	-0.976318	-0.560791
46932		-6.741599	1.893919	7.083072	-0.059177	0.088065	-0.171409	1.253662	-0.978516	-0.564941
46933		-6.773853	1.783086	6.971594	-0.029650	0.114480	-0.168858	1.249268	-0.978516	-0.556396
46934		-6.450558	1.844876	7.171683	-0.035305	0.111484	-0.173311	1.247314	-0.989746	-0.553955
46935		-6.669023	2.040831	6.766451	-0.058060	0.108030	-0.197129	1.242920	-0.991943	-0.547607
46936		-6.371753	2.052082	6.768902	-0.084057	0.097061	-0.203686	1.240723	-0.994141	-0.543457
46937		-6.721453	2.294252	7.156871	-0.113595	0.074013	-0.220950	1.238770	-1.000732	-0.541016
46938		-6.930097	2.545884	7.155955	-0.135929	0.074817	-0.253707	1.238770	-1.000732	-0.541016
46939		-6.695491	1.923209	7.155824	-0.171744	0.075017	-0.269985	1.243164	-1.000732	-0.541016
46940		-7.019203	1.995823	6.894250	-0.198844	0.077896	-0.273577	1.238770	-1.002930	-0.536621
46941		-6.783657	1.827178	7.120983	-0.221911	0.066350	-0.267425	1.236572	-1.005371	-0.536621
46942		-7.013634	1.557869	7.165164	-0.220107	0.049198	-0.243662	1.245850	-1.016357	-0.538330
46943		-7.268091	1.577344	7.040487	-0.224303	0.031128	-0.229358	1.243652	-1.014160	-0.538574
46944		-6.873537	1.613159	7.324846	-0.227777	0.026294	-0.187365	1.239502	-1.022949	-0.538330
46945		-6.852724	1.631840	7.319008	-0.219890	0.028203	-0.175765	1.243896	-1.022949	-0.546631
46946		-6.636968	1.593173	7.297362	-0.229797	0.035647	-0.183657	1.244141	-1.027344	-0.548828
46947		-6.648537	1.986567	7.100324	-0.229626	0.057189	-0.187541	1.248535	-1.027344	-0.544434
46948		-6.791497	1.809417	7.135481	-0.240769	0.075305	-0.195080	1.248779	-1.034180	-0.544189
46949		-6.716012	1.775325	7.414966	-0.230898	0.102406	-0.199202	1.251221	-1.040771	-0.554688
46950		-6.786343	1.785394	7.307788	-0.222553	0.148175	-0.204285	1.258057	-1.042969	-0.554688
46951		-6.710823	1.423684	7.489636	-0.208430	0.182944	-0.207034	1.262451	-1.042969	-0.546143
46952		-7.096294	0.831990	7.407976	-0.199161	0.241224	-0.203705	1.264893	-1.049561	-0.552246
46953		-7.019362	0.747540	7.533941	-0.179920	0.289763	-0.182919	1.271484	-1.051758	-0.547852
46954		-6.803701	1.079678	7.687957	-0.121009	0.356661	-0.172453	1.280518	-1.053955	-0.547852
46955		-7.179238	1.516997	7.454140	-0.145028	0.440598	-0.193480	1.285400	-1.062988	-0.545410
46956		-6.919027	1.747762	7.356017	-0.179972	0.518917	-0.226259	1.296387	-1.060547	-0.541016
46957		-6.611028	1.678610	7.582062	-0.195090	0.591281	-0.249658	1.309570	-1.058350	-0.539063
46958		-6.993685	1.718856	7.459126	-0.187904	0.689589	-0.282606	1.314453	-1.067383	-0.534424
46959		-7.345274	1.220495	7.444040	-0.206218	0.777410	-0.300229	1.329834	-1.062744	-0.526123
46960		-7.149636	1.005640	7.768244	-0.191088	0.885440	-0.278912	1.341064	-1.065186	-0.515381
46961		-7.335087	0.545375	7.799883	-0.179457	1.013950	-0.268672	1.352295	-1.073975	-0.510742
46962		-7.406866	0.796001	7.814087	-0.159993	1.137609	-0.250213	1.365479	-1.065186	-0.496094
46963		-7.282060	1.485317	7.860932	-0.157181	1.270248	-0.243826	1.383301	-1.065186	-0.474609
46964		-7.489215	2.070899	8.031925	-0.148912	1.412314	-0.277529	1.400879	-1.065186	-0.461914
46965		-7.685441	2.388482	7.944525	-0.154770	1.582477	-0.334112	1.411865	-1.056396	-0.447266
46966		-6.278591	2.433945	7.694821	-0.163357	1.849681	-0.460097	1.436279	-1.060791	-0.419434
46967		-6.471941	2.793234	9.787838	-0.198531	2.089251	-0.580816	1.458252	-1.047363	-0.392090
46968		-10.826977	3.252947	8.492894	-0.318647	2.237031	-0.669848	1.477783	-1.040771	-0.360352
46969		-5.708514	3.939565	10.136345	-0.334970	2.620185	-0.836715	1.510742	-1.025391	-0.324463
46970		-6.380547	3.873310	10.609663	-0.311518	3.149481	-1.062897	1.536621	-1.005371	-0.280273
46971		-7.393406	2.621907	10.568289	-0.325987	3.589153	-1.264688	1.560059	-0.979004	-0.225830
46972		-6.859965	2.262249	10.713105	-0.350301	4.034221	-1.356565	1.592773	-0.961426	-0.173096
46973		-4.982717	1.510798	10.834134	-0.298307	4.534091	-1.500057	1.618408	-0.928223	-0.095215
46974		-2.937126	1.630757	11.683889	-0.205238	5.144242	-1.713834	1.637207	-0.901855	-0.013184
46975		-7.240725	1.684919	10.348291	-0.162940	5.789094	-2.037015	1.662354	-0.859863	0.085449
46976		-11.082795	4.113635	8.952279	-0.278237	6.167273	-2.348077	1.678711	-0.820068	0.188477
46977		-13.387732	4.962325	7.863057	-0.468711	6.312911	-2.577897	1.698975	-0.764893	0.293213
46978		-19.039519	1.628070	6.090256	-0.373445	6.216460	-2.708064	1.699463	-0.720703	0.387451
46979		-19.677548	1.616908	6.762352	-0.231877	5.837272	-2.798292	1.697266	-0.658936	0.487549
46980		-15.572733	1.498050	7.510204	-0.047737	5.678718	-2.816240	1.690674	-0.599121	0.581299
46981		-16.749952	3.475746	7.661975	0.325080	5.538736	-2.702521	1.674805	-0.535156	0.668457
46982		-17.345754	4.309719	6.442597	0.794296	5.313908	-2.700888	1.654785	-0.468750	0.757813
46983		-16.763717	4.611051	4.594355	1.108367	4.678734	-2.551697	1.636963	-0.404785	0.832275
46984		-12.373841	2.116957	5.802624	1.340869	3.576686	-2.344485	1.616455	-0.329346	0.872314
46985		-12.750159	1.234810	8.919071	1.674746	1.930413	-2.220767	1.609863	-0.262939	0.895752
46986		-16.505006	5.947763	10.506212	2.237094	0.255428	-2.131472	1.623291	-0.194092	0.893799
46987		-11.340622	9.757174	10.119802	1.683114	-1.314362	-1.870404	1.632568	-0.138428	0.852051
46988		-5.529850	9.013200	8.630314	1.042228	-2.236323	-1.624461	1.650879	-0.084961	0.810303
46989		-1.127995	7.081301	7.374362	0.417971	-2.542830	-1.318260	1.665771	-0.058105	0.758545
46990		0.242605	5.410377	6.331036	0.024964	-2.510405	-0.851272	1.678711	-0.040283	0.707275
46991		0.950957	3.882741	5.731756	-0.130002	-2.356540	-0.274896	1.691895	-0.031250	0.660400
46992		0.247648	3.394469	4.993539	-0.147797	-2.151328	0.369499	1.698975	-0.037842	0.618164
46993		-1.335738	3.453243	4.587274	-0.150245	-2.081051	0.956030	1.699707	-0.062012	0.576416
46994		-1.971659	3.502775	4.901272	-0.185072	-2.116716	1.465517	1.705078	-0.084229	0.536621
46995		-2.659256	3.389646	4.962323	-0.268526	-2.240813	1.848164	1.706299	-0.117432	0.497314
46996		-3.409967	2.715758	5.219711	-0.299001	-2.408622	2.112863	1.705322	-0.157227	0.456055
46997		-4.292552	1.875878	5.196529	-0.222511	-2.632688	2.307321	1.707031	-0.201416	0.399902
46998		-4.869569	1.434406	5.312988	-0.070184	-2.916807	2.423103	1.701660	-0.243408	0.354492
46999		-5.186884	0.951523	5.506871	0.115317	-3.212330	2.483323	1.698730	-0.281006	0.291748
47000		-5.324344	-0.060723	5.696806	0.349779	-3.455788	2.522391	1.688965	-0.322998	0.237793
47001		-5.821558	-0.683553	5.669515	0.620405	-3.667608	2.566165	1.681641	-0.362793	0.177246
47002		-5.801657	-0.880446	5.821270	0.866099	-3.840321	2.565112	1.667480	-0.400391	0.114746
47003		-5.877455	-0.948922	6.062906	1.090417	-3.907596	2.518633	1.657471	-0.435791	0.054199
47004		-6.314710	-0.679129	6.407502	1.232542	-3.936356	2.431908	1.641113	-0.471191	-0.002197
47005		-7.064746	-0.442525	6.829575	1.275091	-3.969995	2.334017	1.628906	-0.504395	-0.058838
47006		-7.855479	-0.338125	7.419796	1.255309	-4.063587	2.237837	1.612061	-0.528564	-0.117432
47007		-8.562340	-0.585582	7.866588	1.244622	-4.191802	2.163626	1.590820	-0.555176	-0.180664
47008		-9.471438	-0.679497	8.229533	1.285819	-4.381877	2.116023	1.578369	-0.581543	-0.241455
47009		-9.964970	-0.413703	8.752145	1.363179	-4.551980	2.064124	1.550781	-0.616943	-0.306396
47010		-10.874106	-0.232758	9.384133	1.480599	-4.639404	1.975901	1.524902	-0.641357	-0.377930
47011		-12.634327	-0.618617	9.681801	1.660541	-4.743730	1.901044	1.501465	-0.667725	-0.445313
47012		-13.579969	-0.743688	9.746637	1.885921	-4.877280	1.855062	1.471436	-0.698730	-0.514648
47013		-13.878634	-0.094941	9.703762	2.094954	-4.925068	1.809375	1.430420	-0.729492	-0.583984
47014		-14.017852	0.407409	9.698826	2.210184	-4.833981	1.747898	1.388916	-0.751709	-0.653564
47015		-14.179151	0.901796	9.786534	2.222448	-4.643557	1.706482	1.343506	-0.789307	-0.710205
47016		-14.678564	1.064333	10.051917	2.176623	-4.354249	1.690829	1.298096	-0.822510	-0.762451
47017		-15.895381	0.589701	10.292252	2.164436	-4.081109	1.754836	1.239014	-0.853516	-0.812744
47018		-16.643286	0.021450	10.179529	2.164703	-3.906848	1.928945	1.186523	-0.882324	-0.854736
47019		-16.277472	-0.020013	9.844070	2.118313	-3.766950	2.133780	1.130371	-0.926758	-0.891846
47020		-15.441238	0.287865	9.380209	1.971374	-3.566963	2.281526	1.071289	-0.962402	-0.923096
47021		-14.583290	-0.231031	8.884376	1.754878	-3.244654	2.395844	1.017090	-1.000000	-0.951904
47022		-14.686637	-0.679609	8.071788	1.570057	-2.871818	2.553906	0.951416	-1.033447	-0.970459
47023		-15.804897	-0.014809	6.681480	1.271755	-2.586343	2.763972	0.894043	-1.053467	-0.987305
47024		-15.823935	1.792509	4.959445	0.647355	-2.396314	2.886179	0.839600	-1.084473	-1.014160
47025		-15.037656	0.187450	2.571159	-0.096978	-2.157581	2.878471	0.780029	-1.102295	-1.035156
47026		-14.343825	-3.434578	-0.457334	-0.341081	-1.713373	2.817551	0.735840	-1.108887	-1.054443
47027		-13.998624	-6.184991	-3.326702	-0.108308	-1.102286	2.731927	0.685059	-1.126709	-1.060547
47028		-14.447989	-7.357339	-5.422947	0.305995	-0.433641	2.508165	0.661377	-1.151367	-1.062012
47029		-15.318880	-7.035005	-6.351300	0.639134	0.200697	2.121888	0.644287	-1.168945	-1.051025
47030		-16.008187	-4.606480	-5.978494	0.722501	0.764589	1.526619	0.633545	-1.182373	-1.035889
47031		-15.849742	-1.408558	-4.665521	0.413412	1.192619	0.775768	0.638184	-1.191406	-1.018555
47032		-15.581847	0.358105	-3.118984	-0.117382	1.482830	0.103255	0.662598	-1.187012	-1.012207
47033		-14.193891	3.622093	-0.745365	-0.834075	1.737029	-0.371574	0.679932	-1.173584	-1.006104
47034		-15.072670	3.044725	-2.215915	-1.781375	2.169212	-0.953840	0.712646	-1.153564	-1.008545
47035		-9.620715	1.098689	1.940566	-2.249319	2.373114	-1.004557	0.749268	-1.113525	-1.011719
47036		2.812627	15.300150	15.288701	-2.675617	2.506219	-1.006955	0.794922	-1.084473	-1.018799
47037		7.464799	25.505741	22.213721	-3.062799	2.732195	-2.142115	0.844482	-1.029053	-1.022217
47038		2.764789	-10.313984	13.363933	-2.798375	3.702901	-2.168685	0.905518	-0.989014	-1.010254
47039		-5.093738	-7.640386	6.291569	-1.748733	4.601469	-1.605099	0.968994	-0.960205	-0.972656
47040		-13.943204	-11.171967	4.773282	-1.381743	4.753275	-1.809130	1.028076	-0.928955	-0.934814
47041		-22.797741	-7.267216	10.519611	-0.736548	4.104536	-1.724254	1.074219	-0.917969	-0.892578
47042		-18.748411	-2.357014	12.539131	-0.220018	3.176110	-1.522598	1.118164	-0.902588	-0.856689
47043		-13.971164	-1.690941	9.454956	0.125954	2.661511	-1.247981	1.151611	-0.900391	-0.816162
47044		-18.362710	4.860870	9.308696	0.288227	2.301435	-0.875112	1.177979	-0.891602	-0.788818
47045		-11.920748	6.066891	7.426962	-0.135201	1.434432	-0.740685	1.195557	-0.891602	-0.767334
47046		-8.151370	3.788767	7.002564	-0.213016	1.030618	-0.670947	1.210938	-0.887207	-0.752441
47047		-6.901737	6.632934	6.865295	-0.321830	0.838821	-0.611507	1.228516	-0.878174	-0.744141
47048		-6.213603	2.951056	7.207590	-0.442575	0.548231	-0.659426	1.239502	-0.873779	-0.725098
47049		-6.143841	3.410772	6.349717	-0.469142	0.380007	-0.676022	1.254639	-0.862793	-0.714844
47050		-6.391014	4.178786	7.072620	-0.545686	0.187399	-0.751687	1.258789	-0.849365	-0.713135
47051		-7.192526	2.879725	7.193601	-0.537760	0.030285	-0.703976	1.271729	-0.840576	-0.706787
47052		-6.866874	1.544411	7.843377	-0.501066	-0.065118	-0.604464	1.273926	-0.838379	-0.708984
47053		-6.546451	0.551165	8.345701	-0.426050	-0.073623	-0.508627	1.278076	-0.829346	-0.702881
47054		-6.993296	0.069131	8.072732	-0.332505	-0.082750	-0.394013	1.284668	-0.829346	-0.702881
47055		-7.153182	-0.080555	8.256527	-0.256674	-0.085426	-0.290507	1.291504	-0.831543	-0.698486
47056		-6.504898	0.786278	8.100073	-0.224484	-0.069370	-0.196155	1.295898	-0.829346	-0.687988
47057		-6.382090	2.134044	7.900131	-0.195829	-0.053611	-0.120270	1.291504	-0.831543	-0.683594
47058		-6.765631	2.517078	7.365765	-0.207591	-0.057595	-0.092666	1.291504	-0.831787	-0.675293
47059		-6.490150	3.410097	7.191806	-0.268363	-0.139579	-0.054057	1.293701	-0.833984	-0.673096
47060		-6.468029	3.287188	6.986576	-0.394084	-0.267011	-0.049445	1.289307	-0.836182	-0.668701
47061		-6.421488	1.850902	7.144405	-0.512398	-0.386461	-0.014040	1.282715	-0.838379	-0.675049
47062		-6.378493	1.338367	7.393995	-0.559968	-0.442880	0.019806	1.282715	-0.836182	-0.670898
47063		-6.321774	0.976370	7.676747	-0.532396	-0.406647	0.065088	1.278564	-0.844971	-0.674805
47064		-6.471264	0.775597	8.075621	-0.442456	-0.338793	0.105261	1.269775	-0.849365	-0.674805
47065		-6.681249	1.239614	7.846080	-0.366116	-0.248140	0.108023	1.258545	-0.847168	-0.670654
47066		-6.224234	1.821844	8.020821	-0.312887	-0.173135	0.121557	1.258789	-0.858398	-0.666016
47067		-6.698169	1.644643	7.395660	-0.282780	-0.096712	0.083400	1.254395	-0.858398	-0.664063
47068		-6.261401	1.702388	7.364290	-0.241416	-0.068774	0.063821	1.250000	-0.860596	-0.659668
47069		-6.076668	1.732979	7.393838	-0.181812	-0.050021	0.036337	1.243896	-0.874023	-0.663574
47070		-6.395552	2.087097	7.145146	-0.138455	-0.009465	0.009366	1.237061	-0.874023	-0.655029
47071		-6.353446	1.391252	7.327240	-0.101155	0.019722	-0.006956	1.235107	-0.880615	-0.652832
47072		-6.339666	1.402460	7.427141	-0.072500	0.040365	-0.024685	1.230469	-0.878418	-0.648682
47073		-6.439932	1.447137	7.164096	-0.060053	0.062399	-0.048020	1.224365	-0.894043	-0.644043
47074		-6.119859	1.276570	7.440315	-0.074077	0.080688	-0.045783	1.224365	-0.894043	-0.646240
47075		-6.454476	1.599618	7.190585	-0.083994	0.091234	-0.052496	1.217773	-0.898438	-0.637451
47076		-6.306345	1.748916	7.227156	-0.083491	0.095054	-0.063393	1.224854	-0.907471	-0.628662
47077		-6.238126	1.589969	7.350398	-0.081782	0.084319	-0.073192	1.218262	-0.909668	-0.635010
47078		-6.400901	1.670462	7.217675	-0.076658	0.092655	-0.090250	1.214111	-0.918457	-0.632813
47079		-6.471319	1.411363	7.261636	-0.078040	0.078471	-0.106597	1.211914	-0.925049	-0.626221
47080		-6.599916	1.483452	7.213779	-0.075208	0.078007	-0.113292	1.207520	-0.925293	-0.626221
47081		-6.531036	1.197562	7.341518	-0.074756	0.075825	-0.108393	1.209961	-0.931885	-0.617432
47082		-6.588547	1.129073	7.366177	-0.062878	0.095004	-0.103722	1.201172	-0.936279	-0.623779
47083		-6.510758	1.241545	7.603143	-0.059198	0.103486	-0.095627	1.206055	-0.947510	-0.617188
47084		-6.723912	1.307663	7.359037	-0.067558	0.124427	-0.108439	1.206299	-0.954102	-0.618896
47085		-6.465786	1.876607	7.368567	-0.068972	0.136208	-0.110320	1.204102	-0.956299	-0.616943
47086		-6.563806	1.734899	7.271954	-0.090252	0.142779	-0.135587	1.206299	-0.958496	-0.616699
47087		-6.523837	1.891424	7.284948	-0.111372	0.155275	-0.157171	1.204346	-0.967285	-0.616455
47088		-6.676372	1.604270	7.336802	-0.123021	0.163912	-0.181095	1.213379	-0.971924	-0.614258
47089		-6.570761	1.695737	7.556077	-0.134310	0.182275	-0.188081	1.218262	-0.978516	-0.616211
47090		-6.730992	1.373184	7.533521	-0.138726	0.214842	-0.213985	1.213623	-0.976318	-0.616211
47091		-6.580555	1.190453	7.771345	-0.122139	0.240599	-0.209954	1.222656	-0.980713	-0.611816
47092		-6.745764	1.233079	7.786898	-0.109205	0.275331	-0.213213	1.229492	-0.985107	-0.609375
47093		-6.733212	1.517898	7.834721	-0.124898	0.322740	-0.229514	1.229492	-0.987305	-0.603027
47094		-6.586085	1.616172	7.875962	-0.144216	0.377681	-0.246125	1.233887	-0.987305	-0.598877
47095		-6.822071	1.248847	7.778536	-0.205925	0.442938	-0.265196	1.247314	-0.989502	-0.600830
47096		-6.654131	1.319351	8.029963	-0.249199	0.518966	-0.270915	1.251953	-0.991699	-0.598633
47097		-6.691261	0.664726	8.028808	-0.224488	0.617554	-0.285167	1.263184	-0.991699	-0.600586
47098		-6.984094	1.021698	7.894222	-0.205292	0.707744	-0.295292	1.267578	-0.996094	-0.593994
47099		-7.073102	0.894155	7.907686	-0.192537	0.780828	-0.296699	1.285400	-0.996094	-0.583496
47100		-7.426750	1.114067	7.747482	-0.203420	0.862135	-0.297017	1.294189	-0.993896	-0.579102
47101		-7.252924	1.705572	7.981007	-0.228157	0.964821	-0.312564	1.312012	-0.993896	-0.566406
47102		-7.367853	1.868124	8.067204	-0.249648	1.091967	-0.360894	1.325439	-0.991699	-0.560059
47103		-7.152952	1.906827	8.166662	-0.246148	1.219466	-0.423572	1.338623	-0.989502	-0.545166
47104		-7.729811	1.613056	8.032324	-0.267904	1.350921	-0.495178	1.354004	-0.982910	-0.532471
47105		-7.157793	1.636080	8.112170	-0.299994	1.517345	-0.584943	1.375977	-0.976318	-0.515625
47106		-5.596971	2.008356	8.432546	-0.315666	1.795299	-0.698231	1.397705	-0.965088	-0.490234
47107		-8.881443	1.730775	9.087050	-0.337519	1.950004	-0.798472	1.415283	-0.954102	-0.475586
47108		-8.378992	1.318414	8.337426	-0.421241	2.118098	-0.898434	1.443604	-0.940918	-0.446045
47109		-5.057055	2.503288	9.613358	-0.389621	2.459625	-1.006334	1.471924	-0.925293	-0.412354
47110		-6.937625	1.884025	8.973818	-0.360805	2.779223	-1.159996	1.495850	-0.905518	-0.372559
47111		-7.936188	1.188931	9.527646	-0.345693	3.062314	-1.244252	1.521729	-0.885498	-0.332764
47112		-5.954708	1.796751	9.781528	-0.331115	3.499341	-1.359402	1.558594	-0.861084	-0.282227
47113		-5.047223	1.209230	10.131381	-0.289430	3.975618	-1.524289	1.582031	-0.828125	-0.215088
47114		-7.371122	0.725749	9.322980	-0.250078	4.390035	-1.644816	1.612305	-0.805908	-0.149902
47115		-5.399707	0.207102	10.570938	-0.224318	4.836097	-1.783372	1.635498	-0.775146	-0.074219
47116		-5.801760	1.243920	10.385515	-0.196189	5.413828	-1.923895	1.654053	-0.737549	0.022461
47117		-10.032311	3.850815	9.006533	-0.228842	5.765979	-2.120575	1.675049	-0.702393	0.119141
47118		-16.972397	2.969711	7.529424	-0.508437	5.800504	-2.319058	1.688965	-0.656006	0.207031
47119		-18.215956	0.122209	7.164929	-0.390953	5.678279	-2.403731	1.695801	-0.605225	0.303467
47120		-16.961568	2.205295	8.752037	-0.295591	5.477563	-2.467875	1.691895	-0.558838	0.386963
47121		-13.148929	2.167980	8.288671	-0.194508	5.479679	-2.657135	1.685547	-0.503418	0.485107
47122		-14.399001	1.378798	7.179204	0.121522	5.470608	-2.631468	1.678955	-0.443848	0.572510
47123		-14.741554	1.521713	6.745321	0.525526	5.344983	-2.585546	1.654541	-0.384277	0.657715
47124		-14.912993	2.620265	5.410888	1.035301	5.035433	-2.433596	1.634521	-0.322266	0.740723
47125		-14.335227	2.944378	4.732571	1.405142	4.428678	-2.332053	1.609863	-0.260498	0.806641
47126		-15.071755	1.867869	7.490570	1.542221	2.907605	-2.129687	1.594482	-0.196045	0.838623
47127		-17.539308	3.233184	10.506621	1.814982	0.987861	-2.011663	1.594482	-0.131836	0.845215
47128		-14.083384	9.404372	10.272152	1.496047	-0.719756	-1.798536	1.601807	-0.082764	0.818359
47129		-6.022266	8.403409	9.097747	0.698792	-1.758700	-1.448831	1.611816	-0.044922	0.781250
47130		-0.775414	5.188858	7.460403	0.261061	-1.941657	-1.073439	1.624512	-0.016113	0.744385
47131		1.023454	2.947560	6.518049	0.181190	-1.724153	-0.425487	1.626221	-0.004883	0.712158
47132		0.393983	2.431893	5.936364	0.327863	-1.416099	0.301174	1.637695	-0.009277	0.680664
47133		-1.469508	3.446672	5.408094	0.391693	-1.278682	0.973682	1.644775	-0.022461	0.657715
47134		-3.046831	4.157129	5.297394	0.221973	-1.476611	1.487924	1.645752	-0.049072	0.624512
47135		-3.489792	4.008745	5.463185	-0.072423	-1.813651	1.866460	1.648926	-0.073242	0.589111
47136		-3.509550	3.219143	5.530099	-0.317943	-2.167206	2.147553	1.652588	-0.113037	0.547852
47137		-3.358994	1.914309	5.489935	-0.412876	-2.457793	2.344302	1.654053	-0.157471	0.508789
47138		-3.397000	1.242836	5.437515	-0.332081	-2.681244	2.453480	1.657715	-0.197266	0.456787
47139		-3.852861	0.866792	5.530466	-0.197008	-2.899666	2.470029	1.659180	-0.239258	0.405029
47140		-4.187461	0.067135	5.651996	0.008990	-3.068910	2.419972	1.653809	-0.274658	0.350830
47141		-4.940503	-0.796149	5.889102	0.374627	-3.167074	2.350544	1.648438	-0.312256	0.302979
47142		-6.395918	-2.112618	6.004936	0.858502	-3.315496	2.330625	1.643066	-0.345459	0.246582
47143		-7.221562	-2.018811	6.317455	1.308102	-3.572073	2.379567	1.642090	-0.380859	0.196777
47144		-7.714834	-0.733681	6.536500	1.508326	-3.840980	2.365864	1.625488	-0.413818	0.134033
47145		-7.314912	-0.111253	6.704635	1.430682	-4.072209	2.267496	1.626465	-0.440430	0.075195
47146		-6.648889	-0.375966	6.841024	1.269838	-4.163586	2.130101	1.614258	-0.471191	0.016602
47147		-6.375129	-1.048744	6.948836	1.173500	-4.127457	2.030102	1.595215	-0.493408	-0.044434
47148		-6.884016	-1.298386	7.255820	1.172310	-4.038607	1.983864	1.582764	-0.519775	-0.105225
47149		-7.988518	-0.836627	7.605508	1.183758	-3.990815	1.976426	1.570313	-0.546387	-0.159668
47150		-9.231692	0.020069	7.902141	1.083816	-4.080671	1.974506	1.560303	-0.572754	-0.218506
47151		-9.523518	0.579442	8.306797	0.893747	-4.229012	1.944517	1.536621	-0.594971	-0.288086
47152		-9.585314	0.604169	8.634731	0.727250	-4.286915	1.930054	1.522217	-0.623535	-0.355225
47153		-9.932034	0.583715	8.882013	0.637213	-4.222938	1.935338	1.498291	-0.641113	-0.420654
47154		-10.775500	0.641451	9.517464	0.636236	-4.124819	1.973037	1.470703	-0.672119	-0.487793
47155		-12.812121	0.026841	10.098070	0.775047	-4.060668	2.074516	1.440430	-0.700928	-0.554932
47156		-15.012407	0.036528	10.229192	0.975718	-4.202040	2.238178	1.401611	-0.731689	-0.626465
47157		-16.163348	0.953516	10.170404	1.110738	-4.419266	2.347941	1.354004	-0.769287	-0.697998
47158		-16.000075	1.454108	9.969126	1.130922	-4.549717	2.330869	1.301514	-0.795898	-0.760986
47159		-15.338672	0.919116	9.666926	1.132305	-4.489575	2.254176	1.247314	-0.833496	-0.821777
47160		-14.989504	0.267592	9.253440	1.207598	-4.275414	2.180065	1.188232	-0.860107	-0.874512
47161		-15.066520	0.073179	8.945824	1.346390	-4.004016	2.083251	1.129150	-0.891113	-0.924805
47162		-15.339380	0.377385	8.683525	1.458570	-3.736517	1.979604	1.065674	-0.919922	-0.962646
47163		-16.007995	0.954868	8.563317	1.453266	-3.477284	1.847139	1.008545	-0.942139	-1.002686
47164		-16.626526	0.305876	8.277572	1.350921	-3.261567	1.765871	0.958496	-0.973389	-1.019043
47165		-16.689850	-0.381569	7.261838	1.184419	-3.130226	1.876922	0.901367	-0.995605	-1.050537
47166		-15.486475	0.673248	5.564056	0.849094	-2.940298	2.036255	0.850830	-1.013184	-1.073486
47167		-14.339516	0.436737	3.200217	0.318618	-2.539853	2.110452	0.802246	-1.028809	-1.101074
47168		-14.448854	-1.607235	-0.104473	-0.049014	-1.992438	2.141341	0.746826	-1.033447	-1.113770
47169		-14.813395	-4.757196	-3.137882	-0.023279	-1.368939	2.182376	0.713867	-1.046631	-1.126465
47170		-16.078984	-6.376449	-5.888845	0.259363	-0.801174	2.161146	0.687744	-1.066650	-1.128174
47171		-16.813856	-7.196794	-7.837971	0.562573	-0.290182	1.945617	0.663818	-1.082275	-1.127686
47172		-15.390357	-6.288046	-7.953451	0.729709	0.325578	1.504739	0.651123	-1.102295	-1.116699
47173		-14.519495	-3.539787	-6.769895	0.604453	1.044528	0.856492	0.656006	-1.120117	-1.092773
47174		-15.280014	-0.368705	-4.620036	0.225370	1.600247	0.154241	0.673828	-1.117920	-1.082031
47175		-18.035916	4.135843	-4.055460	-0.822076	2.030411	-0.702506	0.711182	-1.104492	-1.071777
47176		-17.080207	0.324542	-3.516044	-1.674589	2.187774	-1.396413	0.750244	-1.071289	-1.070313
47177		4.478876	3.617868	10.642639	-2.254521	2.411366	-1.485895	0.793945	-1.046631	-1.066406
47178		6.118901	22.400074	23.348923	-1.936712	3.179017	-2.062750	0.854736	-1.004395	-1.052490
47179		3.931122	0.405642	16.589022	-2.061285	4.065093	-2.495727	0.915771	-0.964600	-1.027832
47180		-8.790294	-8.831709	7.110903	-1.129135	4.463411	-1.556732	0.977539	-0.944580	-0.991943
47181		-17.171254	-9.477508	4.948732	-0.806449	4.626705	-1.468212	1.032471	-0.926758	-0.943359
47182		-23.565233	-7.902851	8.380981	-0.377857	4.046954	-1.434736	1.078613	-0.909180	-0.899170
47183		-15.347006	-1.198969	13.622456	0.139945	3.306172	-1.420225	1.125244	-0.909180	-0.858643
47184		-13.281019	1.769492	9.833979	0.431844	2.934610	-1.211769	1.154053	-0.906982	-0.815918
47185		-20.839526	8.344652	7.160174	0.351134	2.312620	-0.909868	1.182617	-0.900391	-0.788330
47186		-12.024645	4.658103	5.947800	-0.212952	1.380952	-0.786231	1.202393	-0.895996	-0.767090
47187		-8.094983	4.022396	8.620227	-0.257495	1.083481	-0.654876	1.222412	-0.893799	-0.752197
47188		-7.132227	4.240854	7.840593	-0.266398	0.785633	-0.547446	1.233398	-0.889404	-0.737549
47189		-6.694944	2.972883	6.728763	-0.290609	0.605541	-0.514490	1.246582	-0.887207	-0.729004
47190		-6.300068	4.082198	6.728653	-0.344378	0.466004	-0.489840	1.259521	-0.875977	-0.720703
47191		-6.229761	2.240454	7.048686	-0.386929	0.340916	-0.502286	1.264160	-0.878174	-0.712158
47192		-7.086442	1.798072	7.305031	-0.329650	0.238556	-0.420667	1.275146	-0.873779	-0.701660
47193		-6.492807	2.372006	7.987126	-0.267087	0.178013	-0.364119	1.283936	-0.871582	-0.693115
47194		-6.846644	1.200324	8.206404	-0.205645	0.177218	-0.320384	1.288330	-0.869385	-0.684814
47195		-6.748149	0.837687	8.280385	-0.131733	0.169862	-0.258257	1.294922	-0.867188	-0.669922
47196		-6.857233	0.483867	8.068471	-0.060982	0.157389	-0.175473	1.301758	-0.875977	-0.661133
47197		-6.681470	1.210204	7.962876	-0.010910	0.145494	-0.118169	1.299561	-0.876221	-0.656982
47198		-6.533514	2.144598	7.205422	-0.011077	0.103470	-0.119230	1.308350	-0.874023	-0.646240
47199		-6.823181	3.063095	6.801192	-0.062730	0.027567	-0.119161	1.310791	-0.882813	-0.637451
47200		-6.627906	3.399291	6.763260	-0.140825	-0.058292	-0.106139	1.306396	-0.885010	-0.624756
47201		-6.999705	3.065946	6.632456	-0.231460	-0.166391	-0.108199	1.308838	-0.891846	-0.622314
47202		-6.540175	2.262412	6.986779	-0.317874	-0.264941	-0.077409	1.299805	-0.889404	-0.626709
47203		-6.566796	1.345561	7.260491	-0.373829	-0.320963	-0.050841	1.306641	-0.891846	-0.624512
47204		-6.508769	2.138321	7.324624	-0.388982	-0.347645	0.003687	1.295654	-0.898438	-0.626465
47205		-6.961111	1.646959	7.182800	-0.387896	-0.334405	0.033175	1.297852	-0.898438	-0.626465
47206		-6.640585	1.798206	7.327683	-0.361152	-0.311096	0.080830	1.282471	-0.900635	-0.622314
47207		-6.293442	1.872745	7.395121	-0.337110	-0.279331	0.087630	1.282471	-0.905029	-0.624268
47208		-6.533807	1.964719	7.303273	-0.313968	-0.264646	0.086003	1.275879	-0.905029	-0.622070
47209		-6.410929	1.721195	7.154173	-0.294169	-0.226666	0.069745	1.269531	-0.916260	-0.624023
47210		-6.225475	1.888258	7.231652	-0.242932	-0.180497	0.060820	1.267334	-0.918457	-0.613281
47211		-6.636286	1.793539	7.104863	-0.207241	-0.149582	0.046896	1.262939	-0.920654	-0.611084
47212		-6.647295	1.852880	7.092252	-0.170901	-0.106247	0.030936	1.254395	-0.929688	-0.613037
47213		-6.711556	1.859408	7.264058	-0.161759	-0.113950	-0.006443	1.252197	-0.931885	-0.608887
47214		-6.412870	2.274855	7.262918	-0.193096	-0.102783	-0.046908	1.248047	-0.940674	-0.608643
47215		-6.388633	2.104017	6.958196	-0.201780	-0.071933	-0.071080	1.243652	-0.940674	-0.604248
47216		-6.305019	1.725237	7.109210	-0.204438	-0.061405	-0.084579	1.237061	-0.942871	-0.606445
47217		-6.478665	1.988890	7.182813	-0.187610	-0.044167	-0.094691	1.237305	-0.951904	-0.604004
47218		-6.644988	1.742019	7.166247	-0.178203	-0.027528	-0.113126	1.235107	-0.954102	-0.608154
47219		-6.456181	1.049401	7.366019	-0.155403	-0.002189	-0.112697	1.226563	-0.960693	-0.605957
47220		-6.678041	1.166935	7.157084	-0.128539	0.033434	-0.101039	1.226318	-0.960693	-0.599609
47221		-6.332421	1.706527	7.411436	-0.106618	0.041972	-0.089775	1.224609	-0.976318	-0.603516
47222		-6.683675	1.380757	7.269330	-0.095417	0.066128	-0.102339	1.227051	-0.978516	-0.599121
47223		-6.609571	1.791994	7.374534	-0.082273	0.081364	-0.097222	1.227051	-0.982910	-0.594727
47224		-6.393405	1.926217	7.557257	-0.088375	0.088773	-0.093053	1.220703	-0.991699	-0.598633
47225		-6.490350	1.868148	7.443223	-0.073463	0.123704	-0.111725	1.218750	-0.996338	-0.594482
47226		-6.529751	1.892339	7.420554	-0.071533	0.137601	-0.124283	1.216797	-1.005127	-0.596191
47227		-6.689649	1.134883	7.423032	-0.065306	0.161750	-0.130199	1.221436	-1.016357	-0.593750
47228		-6.536476	1.219972	7.653431	-0.037198	0.192558	-0.115161	1.226074	-1.020752	-0.589355
47229		-6.818320	1.157439	7.597525	-0.015635	0.230291	-0.106233	1.226318	-1.022949	-0.589355
47230		-6.657731	1.439226	7.569945	0.009623	0.251514	-0.105917	1.237549	-1.029541	-0.584717
47231		-6.504280	1.648948	7.456497	0.002193	0.266066	-0.136548	1.229004	-1.038574	-0.580322
47232		-6.303514	2.154822	7.352727	-0.009400	0.301874	-0.175592	1.242188	-1.033936	-0.578369
47233		-6.497209	1.871774	7.443582	-0.028122	0.329115	-0.202277	1.249268	-1.047363	-0.575684
47234		-6.708641	1.367840	7.429578	-0.050100	0.357546	-0.220255	1.253662	-1.047363	-0.573486
47235		-6.790629	1.892925	7.484198	-0.087600	0.400458	-0.233751	1.258301	-1.051758	-0.569092
47236		-6.777129	1.879246	7.544125	-0.128559	0.449864	-0.245288	1.267334	-1.053955	-0.571289
47237		-6.761012	1.502369	7.436593	-0.184618	0.498561	-0.252296	1.273926	-1.053955	-0.566895
47238		-6.958686	1.289717	7.695472	-0.209278	0.573820	-0.258037	1.287598	-1.062744	-0.560303
47239		-6.792709	1.126532	7.795357	-0.186731	0.675046	-0.241290	1.285400	-1.062744	-0.560303
47240		-6.676624	1.132365	7.968206	-0.153449	0.753770	-0.233888	1.300781	-1.062744	-0.547363
47241		-6.995064	0.897536	8.080402	-0.056659	0.864932	-0.218103	1.314209	-1.062744	-0.538818
47242		-7.040624	0.758593	8.054785	-0.006929	0.980459	-0.197057	1.323242	-1.067383	-0.528076
47243		-7.312295	0.704548	7.988397	0.010163	1.070727	-0.203104	1.338867	-1.069580	-0.508789
47244		-7.288864	0.522472	8.114884	0.088716	1.192100	-0.164298	1.350098	-1.076172	-0.493652
47245		-7.487602	0.685183	7.975526	0.109793	1.313581	-0.161256	1.367920	-1.073975	-0.478760
47246		-7.057842	1.183607	7.874758	0.135383	1.471545	-0.170727	1.388184	-1.083008	-0.459229
47247		-6.171691	1.645169	8.620227	0.097705	1.667473	-0.219472	1.399170	-1.080811	-0.436035
47248		-8.893117	3.137670	8.493190	-0.016390	1.788812	-0.274992	1.416992	-1.083008	-0.414551
47249		-7.663489	3.777807	8.310490	-0.136585	1.995472	-0.354462	1.434570	-1.078613	-0.389160
47250		-7.058834	4.564567	8.552334	-0.182893	2.313057	-0.480083	1.456543	-1.072021	-0.357422
47251		-7.203146	4.949007	8.865670	-0.228010	2.632975	-0.683315	1.482910	-1.061035	-0.319336
47252		-7.142040	4.883386	9.621773	-0.306077	3.022114	-0.946309	1.511230	-1.047607	-0.281250
47253		-6.489339	5.576174	9.946798	-0.156161	3.632641	-1.397744	1.536865	-1.014648	-0.220459
47254		-6.501860	4.096600	9.652609	-0.073874	4.221185	-1.843444	1.575928	-0.992432	-0.161621
47255		-6.196704	2.524745	9.896286	-0.090755	4.581372	-2.087905	1.605713	-0.950439	-0.086182
47256		-6.443447	1.632589	10.636564	-0.064454	4.947923	-2.296425	1.639893	-0.910645	-0.002197
47257		-6.884465	3.401833	10.117463	-0.123069	5.385745	-2.510742	1.659912	-0.855469	0.089600
47258		-10.420523	2.943799	9.841870	-0.319019	5.531190	-2.659383	1.680908	-0.815674	0.175537
47259		-14.719991	2.287594	8.269312	-0.539202	5.729916	-2.763900	1.692139	-0.758057	0.269531
47260		-19.272733	1.095355	7.282571	-0.149830	5.784399	-2.704708	1.696777	-0.707275	0.363770
47261		-19.016639	2.418597	7.662330	0.175762	5.607049	-2.785222	1.694824	-0.649902	0.459717
47262		-17.691596	2.875705	8.183003	0.467240	5.448794	-2.834968	1.696533	-0.572510	0.548584
47263		-17.770982	4.230519	8.196088	0.795311	5.194124	-2.875017	1.687500	-0.510498	0.638184
47264		-16.838741	4.647737	6.126039	1.169514	4.740165	-2.929545	1.671631	-0.435303	0.712158
47265		-14.405626	4.532668	5.037072	1.608515	4.085182	-2.761843	1.657715	-0.353516	0.775635
47266		-10.343057	4.218970	7.017290	1.805580	2.973777	-2.606177	1.643799	-0.278076	0.813721
47267		-13.735586	6.092223	10.059530	1.751475	1.552462	-2.627725	1.641846	-0.213867	0.826660
47268		-13.426341	10.303973	10.557810	1.460643	0.220039	-2.365348	1.648438	-0.145020	0.818359
47269		-7.208903	9.193264	9.451253	0.565745	-0.936923	-1.953976	1.651367	-0.093750	0.787109
47270		-2.456805	6.964214	7.859728	0.069419	-1.468887	-1.493574	1.659424	-0.069336	0.752441
47271		0.093439	5.673988	6.615398	-0.307011	-1.554335	-0.966974	1.665527	-0.046875	0.715820
47272		0.897457	4.200414	5.871912	-0.499802	-1.528283	-0.363445	1.665527	-0.040283	0.687988
47273		0.747038	3.515475	5.846388	-0.612437	-1.440216	0.294237	1.670166	-0.046875	0.658447
47274		-0.714980	3.260463	6.118463	-0.724166	-1.461121	0.934403	1.673340	-0.073242	0.627441
47275		-2.665569	3.204343	6.044928	-0.916162	-1.733503	1.472390	1.680908	-0.102051	0.587891
47276		-3.899348	1.898258	5.738336	-1.020871	-2.117773	1.873957	1.677979	-0.139648	0.548828
47277		-3.821266	0.483249	5.704317	-0.907606	-2.491629	2.180873	1.681641	-0.179443	0.499023
47278		-3.359419	0.371984	5.670004	-0.711321	-2.781958	2.394045	1.680908	-0.223877	0.449219
47279		-3.332205	0.037706	5.687615	-0.468350	-2.926782	2.456542	1.680420	-0.272461	0.389160
47280		-4.194382	-0.285009	5.580956	-0.224438	-3.088127	2.442103	1.677002	-0.301270	0.339111
47281		-4.543539	-0.608205	5.816857	0.072907	-3.271524	2.360108	1.669678	-0.345459	0.287109
47282		-5.327923	-1.131393	5.965070	0.466480	-3.422487	2.259395	1.670898	-0.380859	0.224609
47283		-6.000273	-0.951153	5.876168	0.770207	-3.676746	2.184133	1.658936	-0.416260	0.170166
47284		-5.778303	-0.292095	5.784700	0.939675	-3.915119	2.097076	1.651123	-0.444824	0.105225
47285		-5.508132	0.237490	5.940855	0.972970	-4.024859	2.001004	1.643311	-0.473633	0.042480
47286		-5.611300	0.735795	6.075852	0.897990	-4.040947	1.940823	1.630615	-0.495605	-0.008057
47287		-6.108421	0.832315	6.416297	0.782559	-4.040248	1.934059	1.609619	-0.528809	-0.077148
47288		-7.209449	0.818149	6.866804	0.692079	-4.080664	2.012152	1.599609	-0.552979	-0.138184
47289		-8.280644	1.071694	7.229646	0.593685	-4.233248	2.144010	1.576172	-0.583984	-0.194580
47290		-8.764509	1.561243	7.677518	0.485381	-4.409470	2.268423	1.555176	-0.614990	-0.266113
47291		-9.020094	1.813620	8.124413	0.385447	-4.516751	2.351327	1.533691	-0.639160	-0.333496
47292		-9.541963	1.895852	8.500091	0.325104	-4.559902	2.397050	1.499268	-0.670166	-0.404785
47293		-10.241746	1.671369	9.157566	0.349442	-4.555123	2.427612	1.471680	-0.703125	-0.474121
47294		-11.119752	1.062675	9.954167	0.486670	-4.510187	2.487726	1.430420	-0.731934	-0.545654
47295		-12.615234	1.103384	10.691054	0.692009	-4.492148	2.591974	1.391357	-0.756104	-0.615234
47296		-14.590530	2.189940	11.379682	0.802795	-4.531117	2.640080	1.341309	-0.787109	-0.686768
47297		-16.331421	3.071845	11.975924	0.728908	-4.612665	2.588049	1.291504	-0.824707	-0.753906
47298		-17.108046	2.485574	12.412944	0.628199	-4.632002	2.497656	1.225586	-0.849121	-0.819336
47299		-18.069528	1.460163	12.564114	0.749595	-4.432981	2.438110	1.166504	-0.877930	-0.884766
47300		-20.808655	0.635691	12.148765	1.055462	-4.244040	2.476177	1.104980	-0.902344	-0.935303
47301		-22.154806	0.886908	10.899160	1.307308	-4.262703	2.582721	1.039551	-0.935547	-0.985596
47302		-20.597772	1.308760	9.365482	1.366897	-4.260628	2.656041	0.962402	-0.957764	-1.023682
47303		-17.810793	1.400794	7.338850	1.210615	-3.997116	2.663525	0.894531	-0.995605	-1.052490
47304		-15.167152	0.121203	4.764834	0.884558	-3.407558	2.582265	0.828613	-1.015625	-1.084229
47305		-16.539057	-1.822346	0.743130	0.543537	-2.719441	2.487594	0.775635	-1.028809	-1.105469
47306		-18.205564	-5.224189	-3.746897	0.416490	-1.993440	2.349868	0.727051	-1.044434	-1.120117
47307		-21.622920	-9.574825	-9.359191	0.484754	-1.379794	2.290272	0.687744	-1.062256	-1.128174
47308		-23.296126	-11.740377	-14.042066	0.662466	-0.768879	2.136653	0.663818	-1.080078	-1.123535
47309		-20.378680	-8.532053	-13.764332	0.485834	0.057701	1.617375	0.655029	-1.086670	-1.116943
47310		-16.918710	-2.779599	-10.088646	-0.295194	1.048319	0.684373	0.657227	-1.086670	-1.114990
47311		-16.596034	-1.123423	-5.767317	-1.120618	1.836073	-0.281592	0.690186	-1.073486	-1.115234
47312		-16.181000	-2.758730	-1.977279	-1.436807	2.152873	-0.738346	0.714111	-1.055664	-1.106934
47313		-16.019505	-4.474204	-0.993676	-0.873461	2.461661	-0.921180	0.753662	-1.042236	-1.090332
47314		-10.892337	3.636052	3.875078	-0.766100	2.252479	-0.904566	0.789063	-1.035645	-1.073242
47315		2.907711	12.102941	19.027727	-1.741136	2.400744	-1.309111	0.834961	-1.011230	-1.067383
47316		8.116392	16.833040	22.405176	-1.089474	2.658884	-2.337288	0.887451	-0.979980	-1.048828
47317		-0.711281	-0.913274	12.620726	-0.667808	3.291832	-2.420163	0.948975	-0.955566	-1.013184
47318		-9.849836	-3.220069	6.120203	-0.405338	3.928226	-1.997902	1.003662	-0.933350	-0.970947
47319		-19.234001	-7.167549	4.668038	-0.376634	4.049236	-1.453665	1.049805	-0.917969	-0.928711
47320		-20.691034	1.794968	8.402604	-0.389930	3.341867	-1.134170	1.094238	-0.911377	-0.892578
47321		-12.177875	3.257927	11.047334	-0.392555	2.769314	-1.139685	1.129395	-0.900146	-0.860840
47322		-11.051528	1.055238	9.145765	-0.179761	2.565238	-1.034478	1.160156	-0.891357	-0.826904
47323		-15.240664	1.355792	8.921544	-0.009671	2.200252	-0.823845	1.184570	-0.889160	-0.797119
47324		-11.929409	0.773026	8.270115	-0.040486	1.502502	-0.705459	1.208740	-0.886963	-0.771729
47325		-7.546613	1.037798	7.974292	-0.026471	1.159355	-0.543196	1.215332	-0.882568	-0.746338
47326		-5.904754	1.894525	7.567181	0.092782	0.977320	-0.358104	1.229004	-0.891602	-0.729004
47327		-7.476319	1.990209	6.348539	0.053645	0.786249	-0.296270	1.237793	-0.889404	-0.707764
47328		-7.477634	3.031969	6.605428	-0.019436	0.605804	-0.251684	1.250977	-0.885010	-0.695068
47329		-7.521911	3.747366	6.671410	-0.077980	0.464660	-0.231735	1.253418	-0.891602	-0.684326
47330		-7.460083	3.235059	7.142978	-0.140492	0.335580	-0.234552	1.257813	-0.893799	-0.673584
47331		-6.874425	1.627453	7.947903	-0.108271	0.265375	-0.161254	1.258057	-0.900635	-0.660645
47332		-6.530650	1.849810	7.981923	-0.061632	0.239788	-0.127147	1.264648	-0.902832	-0.647705
47333		-6.540146	1.825252	7.921776	-0.040176	0.228525	-0.113351	1.264648	-0.902832	-0.635010
47334		-7.018005	1.723978	7.478675	-0.013930	0.229309	-0.102270	1.260254	-0.907471	-0.617920
47335		-6.846843	1.880979	7.440755	0.003224	0.195295	-0.056446	1.262695	-0.914063	-0.613525
47336		-6.827542	1.990511	7.224176	-0.005828	0.130544	-0.042964	1.258545	-0.918457	-0.602783
47337		-6.883589	2.231119	7.008692	-0.029713	0.032007	-0.011375	1.260742	-0.922852	-0.600586
47338		-7.092908	2.383988	6.966902	-0.104675	-0.090282	0.016344	1.254395	-0.929688	-0.593994
47339		-6.819998	2.635986	7.080573	-0.169891	-0.195588	0.047651	1.251953	-0.927490	-0.587646
47340		-7.261147	2.565195	6.820652	-0.239150	-0.289486	0.062882	1.247803	-0.934082	-0.585449
47341		-7.102447	2.237777	6.916577	-0.283101	-0.356688	0.081372	1.236816	-0.940674	-0.585205
47342		-6.832009	2.088007	7.148357	-0.315772	-0.383835	0.103234	1.230225	-0.943115	-0.589600
47343		-6.836657	2.122607	7.211822	-0.378395	-0.385130	0.125253	1.219238	-0.945313	-0.589600
47344		-6.368226	1.978617	7.405404	-0.393657	-0.319830	0.132633	1.210693	-0.956299	-0.593506
47345		-6.749287	1.739446	7.312809	-0.260732	-0.155826	0.085488	1.208496	-0.956299	-0.591309
47346		-7.020862	1.935870	7.052178	-0.155311	-0.062679	0.046345	1.199707	-0.960693	-0.593262
47347		-6.544990	1.966582	6.976663	-0.113795	-0.033815	0.022419	1.193359	-0.967529	-0.593262
47348		-6.313177	1.929382	6.860701	-0.095519	-0.034507	-0.005586	1.193604	-0.976318	-0.588623
47349		-6.718067	1.806762	6.722767	-0.086615	-0.035900	-0.027398	1.184814	-0.980713	-0.586426
47350		-6.584312	2.206327	6.579104	-0.108130	-0.045576	-0.066218	1.176025	-0.987549	-0.586426
47351		-6.470276	2.135308	6.342701	-0.168559	-0.090355	-0.091446	1.173828	-0.989746	-0.586426
47352		-6.299903	2.475031	6.176229	-0.225315	-0.145491	-0.111515	1.169678	-0.996338	-0.588379
47353		-6.268208	2.290922	6.443071	-0.272075	-0.207889	-0.130986	1.165283	-0.996338	-0.594727
47354		-6.526992	1.927581	6.713727	-0.289760	-0.232768	-0.133435	1.167969	-1.009766	-0.594238
47355		-6.470461	1.659080	7.389368	-0.287226	-0.211320	-0.110459	1.156494	-1.002930	-0.596680
47356		-6.747445	1.110100	7.923419	-0.249809	-0.151375	-0.092553	1.154785	-1.018555	-0.598389
47357		-6.828800	0.971486	8.170372	-0.174908	-0.055538	-0.045001	1.150146	-1.014160	-0.600586
47358		-7.294708	1.047515	7.871363	-0.089962	0.038061	-0.017785	1.145996	-1.020752	-0.598389
47359		-6.903496	1.600486	7.930894	-0.038844	0.080247	0.018710	1.148682	-1.031982	-0.602295
47360		-6.850000	1.831632	7.475911	-0.050898	0.124806	-0.003213	1.146484	-1.038574	-0.597656
47361		-6.906354	2.421908	6.965612	-0.116365	0.155284	-0.015935	1.142578	-1.049561	-0.597412
47362		-6.720334	2.778100	6.665527	-0.220114	0.125345	-0.045957	1.142578	-1.049561	-0.603760
47363		-6.660653	2.837579	6.611813	-0.286837	0.083384	-0.113548	1.147217	-1.053955	-0.603760
47364		-6.197589	3.329994	7.043561	-0.323794	0.058164	-0.185784	1.147217	-1.058594	-0.609863
47365		-6.528636	2.282577	7.090609	-0.333229	0.071025	-0.239558	1.153809	-1.056152	-0.605713
47366		-6.419445	1.431982	7.288743	-0.318628	0.097825	-0.260369	1.156250	-1.060791	-0.616211
47367		-6.622931	0.941440	7.436156	-0.285870	0.139294	-0.277041	1.158447	-1.062988	-0.620361
47368		-6.644994	0.972118	7.642162	-0.251956	0.183926	-0.264418	1.167480	-1.060547	-0.620361
47369		-6.654924	1.087924	7.449514	-0.222480	0.223097	-0.275203	1.169678	-1.062744	-0.622314
47370		-6.551293	1.639358	7.350276	-0.189531	0.275726	-0.279414	1.176514	-1.067383	-0.622314
47371		-6.824520	1.152905	7.234886	-0.157691	0.307091	-0.278636	1.185303	-1.067383	-0.615723
47372		-6.477285	1.583944	7.447526	-0.144532	0.339950	-0.277412	1.185547	-1.069580	-0.617920
47373		-6.656244	1.651243	7.627332	-0.147992	0.377329	-0.295370	1.198730	-1.069580	-0.613525
47374		-7.202366	1.414891	7.589457	-0.151505	0.405583	-0.320194	1.205566	-1.069580	-0.613525
47375		-7.116317	0.790138	7.624380	-0.121542	0.458792	-0.319957	1.214600	-1.073975	-0.611328
47376		-7.239538	1.369873	7.763342	-0.088684	0.549725	-0.324250	1.225586	-1.071777	-0.604980
47377		-7.285068	1.067843	7.541545	-0.072623	0.615809	-0.326010	1.236816	-1.071777	-0.602783
47378		-7.065009	1.211557	7.668107	-0.086357	0.673729	-0.335712	1.245605	-1.071777	-0.594238
47379		-7.315497	1.038808	7.563388	-0.085177	0.748144	-0.339264	1.259033	-1.071777	-0.589844
47380		-6.770995	1.101043	7.617611	-0.116634	0.821800	-0.335256	1.274414	-1.069336	-0.581299
47381		-7.200530	1.283817	7.696261	-0.150601	0.942402	-0.343813	1.287842	-1.069336	-0.572754
47382		-7.284639	1.108940	7.829953	-0.168741	1.075680	-0.353829	1.307861	-1.067139	-0.566406
47383		-7.589584	1.248689	7.855981	-0.170819	1.201739	-0.363730	1.320801	-1.058350	-0.551758
47384		-7.109573	1.212351	8.143667	-0.176161	1.375337	-0.379931	1.334229	-1.062744	-0.532471
47385		-7.216266	1.311031	8.443890	-0.169136	1.551022	-0.388717	1.354004	-1.056152	-0.515381
47386		-7.685422	1.232285	8.365605	-0.136502	1.774116	-0.395372	1.380615	-1.051758	-0.489990
47387		-6.123265	0.990765	8.282085	-0.159410	2.074309	-0.501775	1.402588	-1.045166	-0.464600
47388		-5.594881	1.393198	10.263858	-0.114785	2.340442	-0.572756	1.424561	-1.042969	-0.432617
47389		-11.858315	1.629476	8.262769	-0.215805	2.533109	-0.551374	1.444092	-1.029785	-0.396729
47390		-4.662057	3.048943	9.844549	-0.190728	2.905061	-0.633698	1.470459	-1.020996	-0.360840
47391		-5.838355	3.685098	9.894625	-0.172386	3.414064	-0.839255	1.499023	-1.007813	-0.303711
47392		-7.360737	2.248778	10.161806	-0.190895	3.793993	-1.065318	1.522705	-0.985596	-0.255371
47393		-7.424871	2.962266	9.861604	-0.188389	4.223458	-1.153922	1.554932	-0.961426	-0.186035
47394		-3.284053	2.385881	11.289979	-0.086117	4.850796	-1.382602	1.587646	-0.941406	-0.107666
47395		-4.998499	4.172750	10.845363	-0.028783	5.645022	-1.758240	1.606445	-0.912842	-0.010742
47396		-7.480919	3.535228	9.303957	-0.121817	6.162332	-2.204831	1.629150	-0.866455	0.083496
47397		-12.695856	1.786730	8.969562	-0.264632	6.460647	-2.448472	1.643311	-0.831299	0.195068
47398		-17.650281	2.536220	7.287402	-0.377907	6.516073	-2.495969	1.648193	-0.782715	0.299805
47399		-20.514571	1.959547	7.264055	-0.428325	6.266828	-2.524932	1.650635	-0.727539	0.395752
47400		-16.449028	2.600101	8.529323	-0.323307	6.029417	-2.791909	1.650879	-0.674561	0.489746
47401		-13.999755	2.029464	8.469303	-0.155937	5.985019	-2.835537	1.644287	-0.612549	0.589844
47402		-13.987762	3.933792	8.667031	0.222397	5.954709	-2.799321	1.624268	-0.555176	0.685791
47403		-16.457168	4.853219	7.573267	0.577358	5.839105	-2.797383	1.597412	-0.491211	0.781494
47404		-17.609091	4.177132	5.796196	1.171671	5.288498	-2.538715	1.563965	-0.427002	0.860107
47405		-16.405871	3.544888	5.462379	1.867081	4.374700	-2.304209	1.541504	-0.354004	0.921387
47406		-15.492592	3.588670	6.856863	1.924247	2.688356	-2.200012	1.528076	-0.289795	0.955566
47407		-21.979771	4.864782	10.657076	1.971050	0.079794	-2.084137	1.532471	-0.218750	0.938721
47408		-19.937514	9.669721	11.184716	1.833063	-2.347388	-1.779213	1.564453	-0.165283	0.892822
47409		-3.616483	9.045529	9.846272	1.215426	-3.565982	-1.177792	1.590088	-0.129639	0.823975
47410		1.728695	6.581153	8.020768	0.829043	-3.490774	-0.833650	1.606934	-0.093750	0.759277
47411		3.973785	4.746938	6.739851	0.469577	-3.012057	-0.259772	1.622314	-0.084717	0.703857
47412		3.655136	3.559827	5.605758	0.328451	-2.463638	0.404467	1.626953	-0.089111	0.667969
47413		2.132563	2.891056	5.169455	0.289007	-2.021203	1.052669	1.625244	-0.102295	0.627930
47414		0.852408	2.621682	5.615797	0.339196	-1.788277	1.654590	1.632813	-0.128906	0.592773
47415		-0.626437	2.961818	6.015297	0.312745	-1.812674	2.133709	1.622803	-0.159912	0.559570
47416		-1.813554	2.254671	6.509438	0.289054	-1.997904	2.453939	1.624268	-0.201904	0.522705
47417		-3.338346	1.321777	6.488342	0.349545	-2.311353	2.670799	1.621338	-0.241699	0.483398
47418		-4.695953	0.756197	6.387708	0.493085	-2.751966	2.755285	1.618164	-0.279297	0.437744
47419		-5.354673	0.182493	6.459672	0.642092	-3.200800	2.742869	1.615234	-0.325684	0.379639
47420		-5.573767	-0.664887	6.525488	0.794488	-3.582581	2.651543	1.614502	-0.365479	0.323486
47421		-5.498445	-2.198668	6.494157	1.059494	-3.853920	2.531924	1.604492	-0.394287	0.262695
47422		-5.733587	-3.276884	6.469645	1.496676	-3.987229	2.430370	1.601074	-0.425293	0.214844
47423		-6.732850	-2.771554	6.464136	1.882589	-4.086027	2.323221	1.586426	-0.447266	0.156006
47424		-8.088659	-1.695524	6.498167	2.033121	-4.254571	2.146721	1.580811	-0.473877	0.095215
47425		-8.546943	-1.497818	6.641275	1.955788	-4.491691	1.958842	1.568115	-0.491455	0.033936
47426		-8.237022	-2.032460	6.787960	1.855014	-4.674431	1.864619	1.560059	-0.515625	-0.031250
47427		-8.423711	-2.214202	7.024131	1.839143	-4.753885	1.889181	1.547607	-0.539795	-0.087891
47428		-8.982561	-1.710636	7.356255	1.805286	-4.805630	2.002505	1.539795	-0.562012	-0.159424
47429		-9.600815	-1.289461	7.874755	1.705193	-4.849961	2.163774	1.520996	-0.597168	-0.226318
47430		-10.394154	-0.846918	8.431400	1.580752	-4.892425	2.345433	1.497559	-0.621582	-0.298096
47431		-11.213261	-0.492029	8.974151	1.424219	-4.921218	2.538353	1.474365	-0.656982	-0.367188
47432		-11.921070	-0.027138	9.487793	1.246168	-4.931513	2.699524	1.437744	-0.694580	-0.442627
47433		-12.590847	0.460744	10.040306	1.077334	-4.897549	2.810223	1.406006	-0.734375	-0.516113
47434		-13.666131	0.841112	10.752520	0.957420	-4.809762	2.865356	1.360596	-0.776367	-0.597900
47435		-15.663254	1.048740	11.214290	0.904184	-4.700469	2.923631	1.306396	-0.809570	-0.667236
47436		-18.190471	1.169944	11.384602	0.868785	-4.657176	3.015767	1.250000	-0.855957	-0.738281
47437		-20.515146	1.187829	11.007925	0.780608	-4.668791	3.163591	1.180176	-0.893555	-0.805664
47438		-21.892902	1.547344	10.217159	0.549067	-4.648485	3.292078	1.108154	-0.933594	-0.870605
47439		-21.946715	1.990546	8.580074	0.217028	-4.509504	3.331564	1.035889	-0.964600	-0.936035
47440		-20.935849	2.008460	6.658442	-0.140778	-4.190775	3.255635	0.958740	-0.986816	-0.988770
47441		-20.491625	1.230038	4.025893	-0.422472	-3.646939	3.146826	0.883545	-1.000000	-1.031250
47442		-19.929939	0.147581	0.506197	-0.584696	-2.985079	3.041949	0.819580	-1.015625	-1.075684
47443		-17.571912	-3.357207	-2.350084	-0.544783	-2.195739	2.996511	0.771240	-1.033447	-1.094727
47444		-19.640629	-5.808522	-6.610288	-0.249570	-1.507401	3.014398	0.722656	-1.044434	-1.115723
47445		-21.331903	-7.659639	-9.709157	0.168169	-0.967134	2.731937	0.685547	-1.066650	-1.117432
47446		-21.875813	-8.509451	-11.241901	0.378534	-0.481267	2.171706	0.657227	-1.084473	-1.114990
47447		-19.841814	-6.770465	-10.887368	0.242208	0.174185	1.263084	0.655029	-1.088867	-1.112793
47448		-17.434930	-2.578829	-8.161620	-0.259363	0.978599	-0.002651	0.670410	-1.084473	-1.097900
47449		-17.164474	-2.045030	-6.834553	-0.727532	1.825828	-1.319105	0.710205	-1.075684	-1.095947
47450		-15.587211	-1.806600	-3.523201	-1.053325	2.328318	-2.040893	0.758301	-1.048828	-1.090088
47451		-0.120775	4.285860	13.091570	-1.456896	2.312529	-2.091258	0.803955	-1.015625	-1.073730
47452		4.630269	22.190894	24.392778	-1.187551	2.864210	-2.069057	0.860840	-0.986816	-1.052979
47453		6.108455	7.295405	14.796927	-1.427449	3.460639	-2.123284	0.917969	-0.959961	-1.030029
47454		-6.944309	-3.576775	6.665456	-0.931858	4.258568	-1.531013	0.977539	-0.944580	-0.987793
47455		-15.251118	-6.316843	2.930645	-0.787882	4.711410	-1.201512	1.038818	-0.915771	-0.952148
47456		-22.510466	-5.156820	7.277381	-0.695826	4.132307	-1.074033	1.078613	-0.911377	-0.896973
47457		-14.735824	-1.478578	13.324110	-0.324270	3.453028	-1.193678	1.122559	-0.893555	-0.861084
47458		-11.523930	-1.951451	10.643976	0.157665	3.038579	-1.086887	1.157715	-0.886963	-0.818604
47459		-14.152559	0.225918	7.117707	0.349559	2.674257	-0.970453	1.188965	-0.893799	-0.778076
47460		-19.800521	6.391421	7.198636	0.236292	1.776890	-0.706010	1.208984	-0.889404	-0.754639
47461		-8.183979	4.700800	5.996132	-0.121653	0.991084	-0.564305	1.215576	-0.889404	-0.737549
47462		-8.366882	4.298365	7.869426	-0.220479	0.778849	-0.377951	1.228760	-0.889404	-0.718506
47463		-6.914487	2.963364	8.200571	-0.250475	0.502498	-0.340180	1.233154	-0.882813	-0.705811
47464		-7.135341	1.907289	7.017346	-0.202967	0.400849	-0.279837	1.241943	-0.882813	-0.697266
47465		-7.330622	3.782359	6.900807	-0.212760	0.265272	-0.300023	1.250732	-0.880615	-0.686768
47466		-6.524104	2.785473	7.236068	-0.231180	0.139254	-0.351052	1.250732	-0.882813	-0.678223
47467		-6.750042	2.343285	7.388219	-0.220057	0.049062	-0.327849	1.248535	-0.885010	-0.667480
47468		-6.677617	1.272754	7.585307	-0.190687	-0.012165	-0.292563	1.257324	-0.882813	-0.661133
47469		-6.386763	2.117631	7.970326	-0.153945	-0.041108	-0.234980	1.255127	-0.880615	-0.648438
47470		-6.369291	2.515142	7.856942	-0.130833	-0.037836	-0.218123	1.257324	-0.880615	-0.642090
47471		-6.458619	1.796649	7.524063	-0.114957	-0.028891	-0.186696	1.255127	-0.885010	-0.631348
47472		-6.205594	1.259391	7.526109	-0.120588	-0.045281	-0.148894	1.246582	-0.889648	-0.631348
47473		-6.364359	1.940341	7.322280	-0.168335	-0.107649	-0.131208	1.246338	-0.883057	-0.623047
47474		-6.656362	2.609159	7.021266	-0.235262	-0.180698	-0.102803	1.250977	-0.889648	-0.620605
47475		-7.133204	2.710175	6.926217	-0.320321	-0.265231	-0.074979	1.235352	-0.894043	-0.620605
47476		-6.760022	2.923389	7.354992	-0.393061	-0.326468	-0.025322	1.235352	-0.891846	-0.616455
47477		-6.733848	2.438646	7.565220	-0.457138	-0.378033	-0.028314	1.231201	-0.898438	-0.622559
47478		-6.585648	1.515766	7.579173	-0.494329	-0.404140	-0.033885	1.222168	-0.894043	-0.625000
47479		-6.301146	1.757000	7.592039	-0.513028	-0.395616	0.010915	1.217773	-0.900635	-0.626953
47480		-6.509072	1.604703	7.323704	-0.481884	-0.333202	0.040222	1.208984	-0.903076	-0.631104
47481		-6.258166	1.256022	7.730439	-0.419793	-0.253238	0.054165	1.200195	-0.903076	-0.637451
47482		-6.243088	1.812002	7.682578	-0.364879	-0.199089	0.049021	1.195801	-0.905273	-0.639648
47483		-6.093443	1.631602	7.609747	-0.302101	-0.131758	0.035757	1.187256	-0.914063	-0.637207
47484		-6.262972	1.811381	7.232909	-0.265513	-0.083985	0.004628	1.178467	-0.918457	-0.641357
47485		-6.049542	2.271586	7.270200	-0.272032	-0.043207	-0.013110	1.176270	-0.923096	-0.636963
47486		-6.231752	2.227228	7.121410	-0.254249	-0.026554	-0.050965	1.174072	-0.925293	-0.641357
47487		-6.234838	2.220713	6.920165	-0.250042	-0.010007	-0.089567	1.174316	-0.931885	-0.632568
47488		-5.874790	1.944539	7.178721	-0.246471	0.016608	-0.129595	1.172119	-0.929688	-0.634766
47489		-6.156975	1.585226	7.178251	-0.238274	0.049831	-0.165688	1.156738	-0.934082	-0.641113
47490		-5.942312	1.694460	7.419301	-0.236949	0.063470	-0.178994	1.161377	-0.940674	-0.638672
47491		-6.343769	1.297224	7.271894	-0.231112	0.076719	-0.189687	1.159180	-0.940674	-0.634521
47492		-6.792522	1.041504	7.360827	-0.232287	0.092176	-0.171498	1.154785	-0.947510	-0.636475
47493		-6.609283	1.098773	7.680786	-0.226375	0.097339	-0.144624	1.159180	-0.947510	-0.632324
47494		-6.559174	1.373414	7.725855	-0.196808	0.123228	-0.123518	1.155029	-0.951904	-0.638428
47495		-6.918514	1.525935	7.563043	-0.186767	0.175857	-0.102601	1.159668	-0.960693	-0.642334
47496		-6.617690	1.899968	7.662162	-0.217710	0.162521	-0.106434	1.157715	-0.965088	-0.638184
47497		-6.517142	1.612809	7.732323	-0.225569	0.164822	-0.117649	1.164307	-0.965088	-0.637939
47498		-6.408416	1.713021	7.673424	-0.223154	0.188837	-0.142389	1.168945	-0.971924	-0.637695
47499		-6.419559	1.935074	7.666785	-0.214970	0.217003	-0.169540	1.164551	-0.974121	-0.642090
47500		-6.511864	1.890367	7.568680	-0.221567	0.230911	-0.199340	1.171387	-0.976318	-0.641846
47501		-6.505527	1.411861	7.345371	-0.237749	0.249912	-0.212294	1.169189	-0.974121	-0.639893
47502		-6.698442	1.325741	7.331320	-0.249570	0.257137	-0.234880	1.182617	-0.980713	-0.639648
47503		-6.281461	1.494677	7.500947	-0.237569	0.267680	-0.253817	1.180420	-0.978516	-0.637451
47504		-6.800416	1.548788	7.285035	-0.247096	0.305635	-0.294996	1.182617	-0.982910	-0.635254
47505		-6.651606	1.680148	7.606087	-0.249802	0.326351	-0.339273	1.196045	-0.982910	-0.641602
47506		-6.575801	1.641922	7.661774	-0.282963	0.367033	-0.393214	1.202637	-0.978516	-0.641602
47507		-6.661815	1.416671	7.583373	-0.301297	0.422556	-0.446779	1.211426	-0.976074	-0.635254
47508		-6.754606	0.634336	7.872888	-0.315553	0.485124	-0.441548	1.222412	-0.973877	-0.633301
47509		-6.966360	-0.482871	8.128327	-0.272314	0.573831	-0.406783	1.229004	-0.971680	-0.633301
47510		-6.690905	0.127703	8.440100	-0.151009	0.683025	-0.361133	1.238037	-0.976074	-0.620361
47511		-7.070102	0.001748	8.501288	-0.148829	0.801122	-0.346416	1.253662	-0.976074	-0.620117
47512		-7.092604	0.443750	8.377241	-0.125539	0.922402	-0.335938	1.262451	-0.971680	-0.609619
47513		-7.383441	0.980928	8.056359	-0.134674	1.041638	-0.348585	1.280273	-0.973877	-0.601074
47514		-7.142691	1.569762	7.950299	-0.173174	1.149389	-0.352282	1.295654	-0.967285	-0.586182
47515		-7.074382	1.662610	7.743467	-0.224302	1.245360	-0.380987	1.315674	-0.965088	-0.577881
47516		-7.125546	2.038177	7.764676	-0.263172	1.348884	-0.433052	1.326660	-0.960693	-0.560791
47517		-7.318457	2.285109	7.781850	-0.318587	1.466557	-0.513280	1.351074	-0.960693	-0.550049
47518		-7.290543	1.822716	7.656913	-0.356874	1.652521	-0.600059	1.370605	-0.947266	-0.527100
47519		-5.561619	1.653205	9.330402	-0.406848	1.917950	-0.747216	1.388184	-0.940674	-0.505859
47520		-9.763938	1.522040	9.689050	-0.388338	2.176001	-0.848119	1.409912	-0.925293	-0.482910
47521		-6.356594	2.373030	10.184420	-0.278925	2.686574	-1.063523	1.437988	-0.905273	-0.440918
47522		-5.076831	2.755781	10.879819	0.025205	3.444484	-1.392599	1.477295	-0.887695	-0.383789
47523		-7.179370	0.377194	10.196997	0.196120	3.974738	-1.658662	1.507324	-0.856689	-0.325195
47524		-7.977012	0.170843	10.082948	0.269003	4.267668	-1.622314	1.540039	-0.839111	-0.257568
47525		-6.154627	0.621857	10.429329	0.272120	4.584052	-1.586643	1.570313	-0.812500	-0.183838
47526		-4.647399	0.651909	11.200051	0.359831	5.035536	-1.724958	1.593506	-0.783936	-0.093262
47527		-7.414347	1.054024	9.862546	0.416588	5.378922	-1.818000	1.619141	-0.755371	-0.004883
47528		-7.617256	0.637172	9.574141	0.449365	5.548747	-1.840055	1.635498	-0.719971	0.092041
47529		-15.805544	3.444352	9.190086	0.354452	5.644282	-1.816792	1.643066	-0.684814	0.184326
47530		-18.352368	1.442699	7.816766	0.326147	5.726023	-1.865899	1.648438	-0.649414	0.281006
47531		-21.358116	1.984682	9.249664	0.534167	5.603361	-1.985955	1.646729	-0.603271	0.379395
47532		-19.341537	7.918310	8.808225	0.559828	5.496002	-2.416161	1.640137	-0.543457	0.468994
47533		-19.313455	7.317025	7.601041	0.236381	5.185298	-2.843745	1.637939	-0.483887	0.547852
47534		-17.716363	4.359634	6.492019	0.302715	4.489399	-2.932522	1.631104	-0.417480	0.607422
47535		-12.585244	1.588336	8.424898	0.824852	3.333710	-2.507224	1.626709	-0.355469	0.656738
47536		-10.167400	2.430035	11.246093	1.526795	1.996021	-2.256207	1.617920	-0.293457	0.684570
47537		-9.396209	6.980474	11.867922	2.023342	1.092173	-2.116891	1.618164	-0.229004	0.697510
47538		-7.534513	9.931503	10.705408	1.469523	0.180202	-2.059815	1.625244	-0.175781	0.691650
47539		-6.621607	8.191047	9.526459	0.821901	-0.615548	-1.859124	1.628418	-0.133545	0.677734
47540		-3.695191	5.812206	8.563611	0.402692	-1.173255	-1.420066	1.629639	-0.097900	0.642822
47541		-1.481561	4.354149	7.651577	0.231017	-1.486762	-0.833055	1.639893	-0.073486	0.612305
47542		0.153896	3.765198	7.060611	0.208816	-1.549590	-0.223266	1.639893	-0.066650	0.582520
47543		0.963247	3.422865	6.755727	0.203598	-1.470498	0.361488	1.644531	-0.075439	0.555176
47544		-0.119992	3.162604	6.031356	0.152125	-1.389852	0.861505	1.645020	-0.084229	0.527832
47545		-1.445597	2.041594	5.742694	0.193639	-1.418121	1.221762	1.645508	-0.099609	0.496338
47546		-2.261552	1.589684	5.983167	0.343897	-1.452533	1.487955	1.639893	-0.130615	0.476074
47547		-3.722637	1.055921	6.113667	0.509488	-1.643813	1.663171	1.642822	-0.148438	0.444824
47548		-4.751582	0.474513	6.239945	0.681950	-1.970720	1.812410	1.639160	-0.172607	0.409424
47549		-5.439210	0.668080	6.193369	0.815523	-2.381240	1.866946	1.640381	-0.203613	0.367920
47550		-5.142291	0.220799	6.225885	0.912891	-2.767934	1.828052	1.641113	-0.228027	0.319580
47551		-4.560034	-0.898694	6.170272	1.085901	-3.000130	1.777328	1.639893	-0.247803	0.271484
47552		-4.700793	-1.474643	6.184424	1.367498	-3.119781	1.749192	1.634033	-0.274414	0.229736
47553		-5.600415	-1.363116	6.227795	1.640817	-3.208527	1.749843	1.639404	-0.296387	0.175293
47554		-6.491572	-0.761022	6.260362	1.772212	-3.371328	1.781300	1.626709	-0.313965	0.122559
47555		-6.592586	-0.145553	6.437143	1.736178	-3.540438	1.829205	1.625488	-0.342773	0.076660
47556		-6.760120	0.282004	6.423684	1.611225	-3.674605	1.906054	1.613037	-0.366943	0.017822
47557		-6.826977	0.490951	6.585584	1.451251	-3.765580	2.017130	1.603027	-0.393555	-0.036621
47558		-7.055131	0.401917	7.266000	1.309128	-3.783430	2.141925	1.592773	-0.422119	-0.086670
47559		-8.451792	-0.187112	7.579822	1.261234	-3.792111	2.278090	1.582764	-0.450928	-0.149658
47560		-10.476887	-0.402264	7.775475	1.339808	-3.950488	2.394055	1.557373	-0.486328	-0.206055
47561		-11.544525	-0.474601	7.843484	1.436493	-4.203174	2.451192	1.545166	-0.517334	-0.269043
47562		-11.642316	-0.346761	7.827306	1.544423	-4.404805	2.459250	1.528809	-0.552490	-0.338135
47563		-11.336673	0.203263	7.893799	1.609623	-4.460639	2.422230	1.498779	-0.587891	-0.396729
47564		-11.462635	0.655574	8.198658	1.625567	-4.381530	2.368167	1.471191	-0.625488	-0.465820
47565		-12.035885	0.782101	8.659168	1.629100	-4.252579	2.345354	1.443359	-0.656494	-0.528809
47566		-12.654519	0.669032	9.241947	1.655071	-4.115870	2.387323	1.407227	-0.698486	-0.595703
47567		-13.506651	0.371899	9.898424	1.684725	-4.000172	2.496339	1.366211	-0.736084	-0.649902
47568		-14.710776	0.107677	10.314431	1.630424	-3.935181	2.657439	1.314453	-0.782715	-0.704102
47569		-15.409879	-0.230424	10.474826	1.430228	-3.916739	2.823879	1.262451	-0.827148	-0.764648
47570		-15.425354	-0.596381	10.430309	1.140811	-3.826478	2.939686	1.199463	-0.866943	-0.816895
47571		-15.283920	-0.807663	9.945592	0.885159	-3.608867	2.982983	1.144775	-0.897949	-0.865234
47572		-15.847322	-0.283336	9.224920	0.704528	-3.333866	2.946585	1.079346	-0.931152	-0.906982
47573		-17.411842	0.065360	8.078596	0.573084	-3.094678	2.870476	1.018066	-0.964600	-0.940186
47574		-18.857104	-0.391262	6.258929	0.456763	-2.916137	2.897145	0.954590	-0.993408	-0.973877
47575		-18.500447	0.177135	4.242735	0.196613	-2.708996	2.948208	0.893066	-1.020020	-1.011475
47576		-16.893654	-0.028622	2.061605	-0.307159	-2.391894	2.963073	0.840088	-1.033447	-1.041260
47577		-15.153124	-2.822168	-0.089706	-0.808984	-1.905991	2.933081	0.791504	-1.044434	-1.068604
47578		-16.137365	-3.775665	-3.339815	-1.011920	-1.335672	2.778263	0.747559	-1.055664	-1.096191
47579		-16.770482	-5.878931	-6.072054	-0.940022	-0.719818	2.408005	0.712158	-1.060059	-1.109131
47580		-17.035532	-8.131690	-7.785527	-0.536901	-0.126924	1.965216	0.692383	-1.071045	-1.110840
47581		-16.821187	-8.303208	-8.174732	0.092422	0.515466	1.459486	0.688232	-1.082275	-1.106445
47582		-15.936735	-5.195065	-7.309841	0.565590	1.128701	0.804680	0.697510	-1.093506	-1.078369
47583		-14.323351	0.450565	-4.365377	0.477931	1.655165	0.010773	0.719727	-1.093506	-1.061279
47584		-15.732172	6.108506	-3.837332	-0.672180	2.263567	-0.936372	0.757080	-1.080078	-1.046631
47585		-14.486165	2.214472	-1.256345	-1.845097	2.365678	-1.578942	0.802734	-1.049072	-1.051514
47586		2.505275	6.542381	15.213759	-2.316413	2.327623	-1.399846	0.842041	-1.020020	-1.039551
47587		6.102099	25.969724	24.260961	-1.980504	2.883660	-1.723065	0.898438	-0.975586	-1.033936
47588		2.867496	-1.532536	14.525805	-2.171261	3.624758	-2.061652	0.957275	-0.940186	-1.007080
47589		-7.922225	-8.705262	5.993128	-1.299430	4.487397	-1.257687	1.012207	-0.922363	-0.969238
47590		-15.623653	-7.770058	3.949327	-1.159821	4.666502	-1.062778	1.066895	-0.895752	-0.925049
47591		-20.946751	-4.149394	8.662920	-1.061129	4.172240	-1.300604	1.112793	-0.869141	-0.887451
47592		-14.287143	-3.807766	14.069037	-0.633196	3.510232	-1.423770	1.152588	-0.860352	-0.844971
47593		-16.282642	-2.418682	11.301231	-0.103507	2.998050	-1.276141	1.192139	-0.851563	-0.804688
47594		-25.456819	-0.120340	7.845737	0.219737	1.810275	-0.631726	1.205322	-0.849365	-0.785645
47595		-9.209835	2.263955	6.211977	0.004886	0.761152	-0.396698	1.218994	-0.855957	-0.763916
47596		-5.613335	5.737711	8.787339	-0.012315	0.694684	-0.372785	1.230225	-0.858154	-0.749023
47597		-5.768656	4.915485	7.714018	-0.055629	0.547654	-0.524195	1.238770	-0.849365	-0.738525
47598		-6.487773	4.919364	5.825516	-0.139541	0.428711	-0.500749	1.256592	-0.853760	-0.725586
47599		-6.586762	4.996309	5.607787	-0.284948	0.264652	-0.527525	1.256348	-0.844971	-0.713135
47600		-6.695410	4.394316	6.260678	-0.416003	0.070997	-0.560210	1.264893	-0.836182	-0.711182
47601		-6.345715	2.059550	7.195257	-0.456550	-0.079313	-0.554876	1.269287	-0.833740	-0.707031
47602		-6.210750	1.402632	8.088702	-0.415575	-0.124765	-0.514301	1.271240	-0.827148	-0.698730
47603		-6.725953	0.889294	8.330175	-0.336479	-0.123157	-0.435951	1.275635	-0.820557	-0.696777
47604		-6.886866	0.019870	8.409152	-0.272015	-0.132196	-0.326515	1.277832	-0.820557	-0.686279
47605		-6.392795	0.817098	8.309975	-0.207721	-0.110317	-0.226751	1.271240	-0.822754	-0.679688
47606		-6.536718	0.876458	8.106846	-0.179774	-0.094918	-0.158901	1.275635	-0.827393	-0.668945
47607		-6.179331	1.829329	8.098602	-0.158608	-0.071259	-0.099653	1.273438	-0.829590	-0.662598
47608		-5.891744	2.467259	7.752377	-0.160739	-0.069027	-0.074927	1.273438	-0.827393	-0.662598
47609		-6.853676	2.416199	7.596349	-0.222797	-0.114487	-0.040079	1.266846	-0.831787	-0.658447
47610		-6.690795	2.939359	7.291300	-0.313309	-0.186477	-0.019898	1.260254	-0.833984	-0.656250
47611		-6.352576	3.126175	7.582253	-0.415698	-0.229081	-0.015743	1.256104	-0.840576	-0.656006
47612		-6.241920	2.167439	7.587281	-0.519836	-0.226774	-0.011037	1.249268	-0.836182	-0.658203
47613		-6.173808	1.429000	7.595071	-0.600063	-0.224639	0.020195	1.249268	-0.840576	-0.656006
47614		-5.973086	2.090896	7.554418	-0.606033	-0.181743	0.049333	1.238281	-0.843018	-0.660400
47615		-6.271950	1.518368	7.668979	-0.558227	-0.122354	0.047143	1.233887	-0.843018	-0.662354
47616		-6.542420	1.159518	7.602837	-0.474455	-0.068010	0.024011	1.229492	-0.847412	-0.662354
47617		-6.180709	1.508163	7.617194	-0.386881	-0.038344	-0.008767	1.222900	-0.849609	-0.660156
47618		-6.357977	1.144976	7.563776	-0.317637	0.005641	-0.022676	1.220947	-0.854004	-0.653809
47619		-6.468953	1.572887	7.392836	-0.283335	0.022017	-0.032283	1.214355	-0.856201	-0.657959
47620		-6.290338	1.762539	7.281020	-0.273173	0.045635	-0.040825	1.209961	-0.858643	-0.647217
47621		-5.994504	1.688878	7.504190	-0.262542	0.053072	-0.047062	1.205566	-0.863037	-0.655518
47622		-6.346510	1.745521	7.192407	-0.269816	0.056863	-0.059586	1.210205	-0.869629	-0.649170
47623		-6.231007	1.287575	7.487056	-0.275855	0.058072	-0.078561	1.203369	-0.865234	-0.640625
47624		-6.509748	1.057453	7.450593	-0.254004	0.088074	-0.087086	1.199219	-0.874023	-0.651123
47625		-6.324305	0.967154	7.574587	-0.212481	0.109080	-0.089677	1.194824	-0.878418	-0.646729
47626		-6.654773	0.483389	7.423098	-0.165325	0.135458	-0.082239	1.195068	-0.880859	-0.648926
47627		-6.592565	0.520411	7.595548	-0.118932	0.158899	-0.066372	1.195313	-0.889648	-0.640137
47628		-6.318018	1.139022	7.743463	-0.108943	0.170818	-0.067349	1.188477	-0.889648	-0.642334
47629		-6.516365	1.405144	7.386229	-0.097169	0.185299	-0.073111	1.193604	-0.902832	-0.644043
47630		-6.529306	1.561180	7.316713	-0.091819	0.190182	-0.073464	1.191162	-0.900635	-0.641846
47631		-6.525748	1.524797	7.289221	-0.103979	0.182198	-0.091665	1.189453	-0.914063	-0.635010
47632		-6.469120	1.242155	7.347116	-0.115916	0.175429	-0.102015	1.198242	-0.914063	-0.633057
47633		-6.531887	0.957859	7.379506	-0.116738	0.185228	-0.118328	1.189453	-0.918457	-0.635010
47634		-6.522333	1.146441	7.460538	-0.122160	0.192578	-0.123215	1.194336	-0.929688	-0.636719
47635		-6.895748	1.256640	7.296817	-0.133300	0.195701	-0.140597	1.194336	-0.931885	-0.634521
47636		-6.593924	1.859079	7.437943	-0.146252	0.193981	-0.173568	1.203125	-0.929688	-0.632568
47637		-6.679148	1.913418	7.525192	-0.178304	0.202448	-0.224275	1.200928	-0.929688	-0.628174
47638		-6.513897	2.111804	7.614877	-0.227400	0.214153	-0.289471	1.209961	-0.929688	-0.628174
47639		-6.775319	1.976699	7.645938	-0.271448	0.229042	-0.343395	1.212402	-0.934082	-0.634521
47640		-7.340659	1.378817	7.357080	-0.295742	0.255996	-0.391684	1.221191	-0.936279	-0.636475
47641		-6.827344	1.069438	7.638936	-0.306578	0.269302	-0.422348	1.227783	-0.931885	-0.634521
47642		-6.819911	0.918786	7.723510	-0.301985	0.305828	-0.454658	1.236572	-0.929443	-0.640869
47643		-6.946523	0.594594	7.674695	-0.263116	0.366229	-0.470814	1.245605	-0.929443	-0.636475
47644		-6.944668	0.315122	7.821504	-0.184854	0.447730	-0.480133	1.256348	-0.922852	-0.636719
47645		-6.725935	0.660879	7.992758	-0.174946	0.525225	-0.471027	1.263184	-0.922852	-0.625977
47646		-6.923227	0.416798	7.897769	-0.205714	0.610035	-0.473767	1.273926	-0.916260	-0.621826
47647		-6.950494	0.608625	7.847821	-0.209463	0.698612	-0.483783	1.289551	-0.916260	-0.621826
47648		-6.820384	0.567314	7.950022	-0.228201	0.796283	-0.502537	1.298096	-0.907227	-0.611328
47649		-6.999766	0.699343	8.013593	-0.242433	0.912688	-0.506170	1.320557	-0.907227	-0.604980
47650		-7.054645	0.835214	7.978020	-0.273629	1.025215	-0.522215	1.326904	-0.898438	-0.585938
47651		-7.345079	0.804018	7.966242	-0.300418	1.156213	-0.570897	1.344482	-0.896240	-0.573242
47652		-6.920287	0.824363	7.956535	-0.285512	1.329705	-0.616984	1.364258	-0.889648	-0.566895
47653		-6.007942	0.735400	8.469083	-0.319439	1.564035	-0.709867	1.381592	-0.876221	-0.545898
47654		-8.839816	0.946004	9.387180	-0.328816	1.663092	-0.750390	1.408203	-0.874023	-0.535400
47655		-8.503002	1.479021	9.085832	-0.409414	1.821145	-0.754444	1.427490	-0.854248	-0.501709
47656		-6.441470	2.553978	9.925187	-0.394559	2.184941	-0.858434	1.456055	-0.840820	-0.487305
47657		-7.046226	1.937632	10.434398	-0.409673	2.530768	-1.057752	1.480225	-0.832031	-0.451172
47658		-7.395107	1.634017	10.864989	-0.395790	2.872318	-1.205844	1.505859	-0.805420	-0.413574
47659		-6.953672	2.346379	10.656453	-0.427110	3.273401	-1.340836	1.533936	-0.781006	-0.363281
47660		-5.720412	2.417649	11.210396	-0.448210	3.742943	-1.586503	1.566162	-0.750244	-0.304443
47661		-6.056392	2.770518	11.551047	-0.452096	4.189280	-1.897399	1.598389	-0.717041	-0.241699
47662		-4.794959	2.233549	11.781529	-0.479198	4.753067	-2.255655	1.625732	-0.670410	-0.164307
47663		-4.363838	1.760357	12.071299	-0.327300	5.625471	-2.705876	1.652588	-0.617432	-0.065918
47664		-10.274932	2.753738	10.064455	-0.168045	6.296714	-3.077105	1.673096	-0.571045	0.039063
47665		-18.363236	2.973362	8.259024	-0.188063	6.255989	-3.099631	1.692871	-0.502686	0.138916
47666		-20.437798	0.721640	8.236509	-0.290951	5.814612	-3.086622	1.695313	-0.449463	0.235107
47667		-16.381799	0.945715	9.697824	0.036809	5.715766	-3.086396	1.692871	-0.381104	0.334961
47668		-14.247098	1.862856	9.364987	0.450952	5.754422	-3.146858	1.690674	-0.314697	0.432861
47669		-13.625061	2.134889	8.090933	0.843417	5.813388	-3.171145	1.667725	-0.237305	0.530273
47670		-14.610523	2.444923	6.370909	1.266094	5.549201	-3.082343	1.638428	-0.164307	0.621338
47671		-14.158227	2.823998	6.448757	1.461765	4.618520	-2.894599	1.618408	-0.097900	0.680908
47672		-15.767943	1.202390	9.399497	1.713747	3.256538	-2.628092	1.598145	-0.029297	0.717041
47673		-14.906688	4.708793	11.666470	1.992292	1.778116	-2.216639	1.589600	0.030518	0.736572
47674		-11.990009	8.333231	11.036471	1.546571	0.375705	-1.485420	1.581543	0.070557	0.726807
47675		-6.844697	7.195409	9.747002	0.986958	-0.504686	-0.594427	1.578613	0.094971	0.704834
47676		-2.514540	6.249539	8.080577	0.504446	-0.859773	0.315288	1.581055	0.090576	0.685791
47677		-0.853595	5.354348	7.159403	0.149701	-0.901301	1.086484	1.576904	0.081787	0.664795
47678		-0.225262	4.727379	6.842891	-0.107207	-0.821121	1.702814	1.582031	0.059570	0.650635
47679		-0.725982	3.973797	6.784583	-0.355580	-0.771908	2.143191	1.576660	0.021973	0.630615
47680		-1.682392	2.910123	6.859203	-0.526404	-0.890159	2.445832	1.571533	-0.022461	0.610596
47681		-2.575915	1.678531	6.853113	-0.575911	-1.221300	2.625337	1.577393	-0.062256	0.586182
47682		-3.217481	0.419360	6.869901	-0.455347	-1.672605	2.724929	1.572021	-0.104492	0.551270
47683		-3.373236	-0.437001	6.750182	-0.220963	-2.142294	2.779485	1.577881	-0.142090	0.516357
47684		-3.264856	-1.178872	6.673531	0.051537	-2.575727	2.786000	1.581787	-0.190674	0.466797
47685		-2.902250	-1.823983	6.980273	0.386345	-2.856775	2.757374	1.578613	-0.228271	0.423340
47686		-3.652194	-2.279386	6.750579	0.752425	-3.069267	2.681256	1.584473	-0.265869	0.373535
47687		-4.530859	-2.371901	6.772784	1.089635	-3.340334	2.534095	1.583252	-0.294678	0.319092
47688		-5.262054	-2.166978	6.876687	1.358598	-3.578421	2.336596	1.577637	-0.323242	0.264893
47689		-6.101267	-1.620555	7.001046	1.502281	-3.757440	2.089013	1.587402	-0.347656	0.214600
47690		-6.987098	-1.416514	7.196127	1.549093	-3.927731	1.829792	1.583496	-0.360840	0.155518
47691		-7.842959	-1.694685	7.257462	1.577998	-4.086698	1.640791	1.584473	-0.385010	0.098877
47692		-8.122535	-1.494159	7.271287	1.596133	-4.277242	1.546629	1.580566	-0.395996	0.033447
47693		-8.080656	-1.060659	7.295833	1.607807	-4.399783	1.500844	1.576904	-0.413574	-0.033936
47694		-8.092865	-0.319822	7.425819	1.582058	-4.444194	1.490261	1.571045	-0.433350	-0.099365
47695		-8.462638	-0.088464	7.603600	1.549331	-4.442989	1.526334	1.558350	-0.448730	-0.164795
47696		-9.209026	-0.017959	7.834358	1.516480	-4.435235	1.650403	1.552734	-0.479492	-0.229736
47697		-9.673462	0.213473	8.220954	1.481773	-4.435768	1.846796	1.535645	-0.497070	-0.301514
47698		-9.839240	0.413920	8.749197	1.437497	-4.370959	2.076135	1.521484	-0.534668	-0.366211
47699		-10.409491	0.561896	9.434872	1.406529	-4.210928	2.306257	1.493896	-0.572266	-0.435303
47700		-12.265600	0.676923	9.838116	1.403184	-4.038883	2.503774	1.470947	-0.612061	-0.502197
47701		-15.102584	1.229576	9.992514	1.326110	-4.070204	2.653099	1.429932	-0.652100	-0.564941
47702		-16.771834	1.891203	10.104327	1.106363	-4.291962	2.689301	1.391357	-0.691895	-0.642578
47703		-16.836757	1.316309	9.931679	0.876373	-4.510828	2.662308	1.341553	-0.729492	-0.713867
47704		-16.003245	0.425820	9.454657	0.768589	-4.546058	2.631601	1.280518	-0.760254	-0.787598
47705		-15.550351	-0.376818	9.004726	0.869350	-4.397316	2.581737	1.219482	-0.800293	-0.850586
47706		-15.615684	-1.146151	8.500924	1.084008	-4.205461	2.556075	1.158691	-0.837891	-0.905029
47707		-15.414178	-0.752643	8.217801	1.262853	-4.034975	2.513443	1.095215	-0.873535	-0.944580
47708		-14.971425	-0.054228	7.901512	1.303841	-3.810836	2.402194	1.027588	-0.908936	-0.986572
47709		-14.470927	0.043957	7.483938	1.205669	-3.519776	2.250579	0.970703	-0.937744	-1.015625
47710		-14.076371	-0.656249	6.778443	1.056578	-3.162334	2.173833	0.913574	-0.964355	-1.044922
47711		-14.312823	-1.163321	5.609684	0.818009	-2.767518	2.217290	0.854248	-0.989014	-1.063721
47712		-15.113378	-0.244256	3.891971	0.393517	-2.399435	2.283358	0.801514	-1.006592	-1.091064
47713		-15.619531	-0.401372	2.032926	-0.246891	-2.043420	2.263366	0.766113	-1.010986	-1.120850
47714		-16.853799	-2.416235	-0.725794	-0.730748	-1.704440	2.191401	0.719727	-1.022217	-1.133545
47715		-16.624687	-5.558078	-3.465083	-0.774104	-1.319883	2.094557	0.688721	-1.022217	-1.161133
47716		-15.802070	-6.998410	-5.428855	-0.509733	-0.811145	1.908831	0.664551	-1.033203	-1.165283
47717		-15.689811	-6.763238	-6.275191	-0.215566	-0.185347	1.512869	0.642334	-1.037842	-1.167480
47718		-15.902006	-5.187456	-5.797723	-0.087068	0.438968	0.919991	0.642822	-1.046631	-1.165039
47719		-15.810461	-3.624844	-4.842029	-0.208981	0.971972	0.257666	0.657959	-1.040039	-1.156738
47720		-15.321246	-3.091838	-3.312846	-0.416637	1.367246	-0.244137	0.666992	-1.042236	-1.145996
47721		-13.165643	-1.265247	-0.856033	-0.600220	1.765068	-0.512098	0.704346	-1.028809	-1.131104
47722		-13.012898	-0.040096	-1.966610	-1.017587	2.478461	-0.897267	0.739746	-1.017822	-1.125000
47723		3.905039	1.511864	12.406556	-1.459089	2.702154	-0.876695	0.772461	-1.000000	-1.114746
47724		9.013079	24.024766	25.338499	-0.909444	3.486109	-0.837150	0.825439	-0.986572	-1.083008
47725		11.738523	10.662701	16.627345	-1.450666	3.928575	-1.759120	0.886719	-0.959961	-1.055908
47726		-10.845003	-10.809268	5.967348	-0.581964	4.733109	-1.314028	0.946289	-0.944580	-1.007080
47727		-19.777301	-4.655995	4.345600	-0.541757	4.829482	-1.365002	1.005859	-0.926758	-0.962646
47728		-21.859807	-5.721569	7.537109	-0.495129	4.136655	-1.669037	1.060791	-0.913574	-0.914063
47729		-16.609525	1.714910	13.312930	-0.060059	3.491926	-1.457658	1.104736	-0.897949	-0.882324
47730		-11.723962	2.127415	10.224376	0.154597	3.077940	-1.316126	1.138184	-0.898193	-0.835449
47731		-12.746418	0.809949	6.840208	0.226913	2.753877	-1.093691	1.173096	-0.882568	-0.801758
47732		-17.176241	6.574472	8.839168	0.280411	2.321060	-0.953793	1.192871	-0.878174	-0.765625
47733		-12.490718	6.385941	6.773191	-0.193730	1.460545	-0.812280	1.215088	-0.873779	-0.746582
47734		-8.681746	5.124868	7.993759	-0.317151	1.148193	-0.695177	1.234863	-0.869385	-0.729492
47735		-6.750814	3.695652	7.592633	-0.364004	0.886697	-0.613224	1.248047	-0.860596	-0.719238
47736		-7.046550	2.427625	7.050450	-0.366449	0.621899	-0.652119	1.260986	-0.853760	-0.708740
47737		-6.874147	4.398062	6.797561	-0.389434	0.415181	-0.650994	1.276367	-0.849365	-0.700195
47738		-6.913589	3.415255	7.074056	-0.443026	0.212932	-0.725854	1.291748	-0.835938	-0.700439
47739		-7.425852	2.276701	7.291989	-0.438770	-0.011303	-0.673665	1.291504	-0.833740	-0.696289
47740		-7.466981	1.408089	7.630972	-0.397600	-0.158939	-0.572833	1.297852	-0.820557	-0.688232
47741		-6.719158	1.444873	8.453782	-0.328174	-0.175681	-0.461352	1.306885	-0.822754	-0.687988
47742		-6.789754	0.653198	8.332109	-0.235991	-0.136162	-0.355100	1.311035	-0.820557	-0.679688
47743		-6.720380	0.020049	8.267456	-0.123932	-0.092184	-0.259899	1.313477	-0.822754	-0.679688
47744		-6.408410	1.535451	7.906479	-0.052520	-0.054410	-0.171450	1.313721	-0.829346	-0.668701
47745		-6.888937	2.196174	7.356767	-0.044144	-0.050787	-0.136796	1.326904	-0.824951	-0.662354
47746		-6.568234	2.598477	7.088415	-0.088792	-0.078814	-0.102363	1.324707	-0.831787	-0.656006
47747		-6.507150	1.843992	7.146798	-0.138676	-0.098924	-0.084994	1.324707	-0.831787	-0.649414
