// General information: 
//  MT Manager version: 2021.0.0 
//  XDA version: 2021.0.0 build 5908 rev 109668 built on 2021-04-19
// Device information: 
//  DeviceId: 00B45AE2
//  ProductCode: MTW2-3A7G6
//  Firmware Version: 4.6.0
//  Hardware Version: 2.0.0
// Device settings: 
//  Filter Profile: human(46.1)
//  Option Flags: Orientation Smoother Disabled, Position/Velocity Smoother Disabled, Continuous Zero Rotation Update Disabled, AHS Disabled, ICC Disabled
// Coordinate system: ENU
PacketCounter	SampleTimeFine	Acc_X	Acc_Y	Acc_Z	Gyr_X	Gyr_Y	Gyr_Z	Mag_X	Mag_Y	Mag_Z
46467		12.923084	1.286529	2.661046	0.724834	0.662134	0.270130	-1.204590	-0.340576	-0.436768
46468		12.623069	2.989569	3.419748	0.549056	0.482999	0.369211	-1.194580	-0.340332	-0.448730
46469		12.306194	4.166034	3.020829	0.268694	0.339486	0.383133	-1.200439	-0.330811	-0.448975
46470		11.980967	3.486543	2.584213	0.010305	0.449749	0.320167	-1.209717	-0.325684	-0.449951
46471		11.567518	2.424223	3.096409	-0.048785	0.632998	0.290805	-1.204346	-0.329590	-0.460205
46472		10.707632	2.012381	4.020262	-0.143570	0.601696	0.289782	-1.191895	-0.318115	-0.471191
46473		10.200012	1.701719	4.794414	-0.244052	0.522056	0.319097	-1.199951	-0.312988	-0.471680
46474		9.925504	0.951999	4.905303	-0.321554	0.396143	0.370695	-1.196289	-0.303711	-0.473877
46475		9.754138	0.260180	4.418280	-0.257952	0.291809	0.409531	-1.186768	-0.298584	-0.489502
46476		8.943537	0.453962	4.527345	-0.124209	0.367575	0.391685	-1.191895	-0.289551	-0.493408
46477		7.249852	0.864265	4.363597	-0.129630	0.432940	0.304844	-1.195313	-0.294189	-0.499023
46478		5.850263	0.955355	4.489725	-0.084116	0.380338	0.215110	-1.189209	-0.281982	-0.497803
46479		5.432747	0.760619	4.630178	-0.023431	0.259775	0.149664	-1.191895	-0.273193	-0.497070
46480		6.011288	1.073896	4.686275	0.039478	0.128340	0.135129	-1.189453	-0.284424	-0.504639
46481		7.190974	1.530565	4.615716	0.013360	0.022596	0.174124	-1.199463	-0.275635	-0.510498
46482		8.399267	1.984459	4.025561	-0.021205	-0.044739	0.262047	-1.191406	-0.273193	-0.506104
46483		9.422667	2.187323	3.557429	-0.069613	-0.034216	0.371998	-1.194824	-0.268066	-0.505859
46484		10.026200	1.982994	3.421603	-0.144298	-0.027271	0.463290	-1.189209	-0.261719	-0.509521
46485		9.981227	1.506829	3.155680	-0.232989	-0.025360	0.480142	-1.200684	-0.251953	-0.500977
46486		9.754850	0.702922	3.152094	-0.334486	-0.048093	0.434965	-1.196533	-0.247314	-0.503662
46487		9.317626	-0.133444	3.145883	-0.409306	-0.086625	0.319390	-1.200439	-0.244629	-0.507568
46488		8.869739	-0.653113	3.113666	-0.424936	-0.215693	0.161042	-1.193359	-0.239502	-0.505371
46489		8.699744	-0.598230	3.047603	-0.405214	-0.334074	-0.011049	-1.199463	-0.236816	-0.495361
46490		8.490490	-0.287489	2.706350	-0.394997	-0.357201	-0.142667	-1.202393	-0.234131	-0.500244
46491		8.463947	0.122361	2.632612	-0.382855	-0.291134	-0.213496	-1.203369	-0.235352	-0.492432
46492		8.621799	0.414755	2.593796	-0.348597	-0.260617	-0.209700	-1.204102	-0.242188	-0.493164
46493		8.655540	0.648483	2.480803	-0.317124	-0.235679	-0.185094	-1.201660	-0.234619	-0.488281
46494		8.828691	1.048562	2.427462	-0.285423	-0.245286	-0.143938	-1.211670	-0.233398	-0.490967
46495		8.986442	1.280106	2.562955	-0.324123	-0.276258	-0.129989	-1.206543	-0.233643	-0.485107
46496		9.133198	1.044913	2.599224	-0.399391	-0.317176	-0.136752	-1.210693	-0.234863	-0.484131
46497		9.349081	0.501055	2.463543	-0.444017	-0.350817	-0.144316	-1.218750	-0.237061	-0.477051
46498		9.242891	0.353170	2.204221	-0.439742	-0.318758	-0.160316	-1.213867	-0.229492	-0.475098
46499		9.038866	-0.079664	2.367501	-0.425058	-0.257226	-0.168067	-1.222168	-0.239746	-0.474121
46500		8.782188	-0.254824	2.352229	-0.367956	-0.242382	-0.173612	-1.205811	-0.230469	-0.471191
46501		8.738100	-0.065766	2.498052	-0.299552	-0.251568	-0.178957	-1.209717	-0.247314	-0.472656
46502		8.436186	0.249443	2.427515	-0.274664	-0.230490	-0.180601	-1.215576	-0.231445	-0.469238
46503		7.889640	0.577726	2.642353	-0.237939	-0.183373	-0.170997	-1.211182	-0.235352	-0.465576
46504		7.881165	0.829511	2.983985	-0.237766	-0.233607	-0.143192	-1.210938	-0.236572	-0.468994
46505		7.982618	1.011491	2.829980	-0.311438	-0.366360	-0.139688	-1.217285	-0.241699	-0.464111
46506		8.421462	1.117627	2.523970	-0.341689	-0.435687	-0.128194	-1.217285	-0.236328	-0.459717
46507		8.736399	1.029740	2.279502	-0.372764	-0.441336	-0.127095	-1.210205	-0.233154	-0.438965
46508		9.067949	0.820962	2.024642	-0.401121	-0.448825	-0.133632	-1.222656	-0.242188	-0.451172
46509		9.220535	0.513951	1.716305	-0.426369	-0.449127	-0.144968	-1.222900	-0.235840	-0.440186
46510		9.399226	0.340351	1.426046	-0.424857	-0.431124	-0.170469	-1.223389	-0.242432	-0.445068
46511		9.676824	0.195225	1.219454	-0.421380	-0.395714	-0.174475	-1.225342	-0.245361	-0.439209
46512		9.791001	0.123529	1.103497	-0.396513	-0.353685	-0.179408	-1.231934	-0.242188	-0.435059
46513		9.845594	0.299098	1.084407	-0.360157	-0.301820	-0.170470	-1.223877	-0.238037	-0.426270
46514		9.958971	0.468312	1.135674	-0.349798	-0.246980	-0.154844	-1.232910	-0.242920	-0.421875
46515		9.942694	0.544398	1.054631	-0.344961	-0.190439	-0.133278	-1.231934	-0.242676	-0.427246
46516		9.948720	0.591486	1.002510	-0.345464	-0.121419	-0.115000	-1.235352	-0.243652	-0.424805
46517		9.950324	0.511145	0.939613	-0.349511	-0.056918	-0.089906	-1.236572	-0.243652	-0.427979
46518		9.782853	0.398598	0.861587	-0.350670	0.011008	-0.065358	-1.232422	-0.245605	-0.424805
46519		9.640635	0.437384	0.900846	-0.336343	0.054334	-0.034926	-1.234863	-0.250488	-0.429688
46520		9.506487	0.452062	1.018665	-0.316861	0.108851	-0.003542	-1.234375	-0.234131	-0.430664
46521		9.385155	0.449240	1.192000	-0.309225	0.148418	0.045959	-1.228516	-0.240479	-0.433838
46522		9.214851	0.347311	1.216428	-0.290218	0.165575	0.094815	-1.238525	-0.245850	-0.430176
46523		9.039044	0.202210	1.278739	-0.261587	0.180484	0.142980	-1.227539	-0.233887	-0.439941
46524		8.932843	0.094115	1.345052	-0.212034	0.190038	0.177282	-1.234375	-0.234863	-0.438232
46525		8.971554	0.041398	1.412953	-0.149660	0.196511	0.198680	-1.227783	-0.226807	-0.454590
46526		9.239656	0.163023	1.495522	-0.102047	0.226350	0.222216	-1.236084	-0.225830	-0.444824
46527		9.740751	0.286343	1.479749	-0.063073	0.261725	0.236257	-1.232178	-0.224609	-0.447021
46528		10.033881	0.405997	1.661549	-0.045871	0.329286	0.252944	-1.225342	-0.226563	-0.446777
46529		10.112546	0.435130	1.739378	-0.051752	0.384880	0.273974	-1.229004	-0.220215	-0.458252
46530		10.160879	0.481638	1.740669	-0.075835	0.394087	0.283163	-1.228760	-0.218994	-0.456055
46531		10.278100	0.534899	1.682966	-0.100782	0.392922	0.270077	-1.226318	-0.218750	-0.467529
46532		10.380072	0.509694	1.539230	-0.115718	0.405555	0.244985	-1.229492	-0.213379	-0.467285
46533		10.381624	0.406170	1.420195	-0.147115	0.405678	0.221690	-1.230469	-0.205322	-0.475830
46534		10.274421	0.185827	1.278144	-0.163955	0.378916	0.188016	-1.225098	-0.213379	-0.483887
46535		10.325586	-0.107315	1.063911	-0.169605	0.319443	0.148793	-1.217041	-0.203857	-0.495361
46536		10.385618	-0.472055	0.843763	-0.162443	0.278411	0.098880	-1.218262	-0.205322	-0.489502
46537		10.606789	-0.643775	0.545589	-0.152394	0.220526	0.038647	-1.218994	-0.204590	-0.479736
46538		10.939695	-0.718490	0.037785	-0.154533	0.179150	-0.031589	-1.217041	-0.198486	-0.488770
46539		10.975498	-0.549533	-0.412493	-0.144235	0.196436	-0.108693	-1.216553	-0.210205	-0.502197
46540		11.259520	-0.063299	-0.370449	-0.103138	0.189742	-0.169585	-1.219238	-0.209961	-0.506592
46541		12.180662	1.047357	0.681792	-0.040232	0.329221	-0.229942	-1.213867	-0.215820	-0.502441
46542		12.923926	0.738628	1.529177	-0.130638	0.472059	-0.277185	-1.212158	-0.214844	-0.500732
46543		13.341291	-0.700073	2.614249	-0.191068	0.567421	-0.353407	-1.198486	-0.214111	-0.515625
46544		12.600107	-2.020417	3.779598	-0.141120	0.604099	-0.402116	-1.198975	-0.217529	-0.526367
46545		12.532150	-2.391148	4.422649	-0.144084	0.421227	-0.417922	-1.200195	-0.229736	-0.527832
46546		13.126917	-2.607773	4.119139	-0.102420	0.478850	-0.445093	-1.192383	-0.221191	-0.536621
46547		12.387054	-2.424687	4.564262	0.165160	0.683896	-0.450821	-1.182373	-0.231201	-0.536133
46548		11.669367	-1.929460	4.895501	0.350063	0.512833	-0.428273	-1.183594	-0.240723	-0.551514
46549		11.119993	-1.198698	4.193949	0.397345	0.361798	-0.429796	-1.174072	-0.241455	-0.547119
46550		9.821918	-0.204339	4.164642	0.493192	0.393677	-0.420544	-1.174072	-0.258545	-0.552246
46551		8.235231	0.959196	4.566769	0.468079	0.420241	-0.366923	-1.172852	-0.263184	-0.557373
46552		6.961490	1.914005	5.005352	0.401892	0.405193	-0.307154	-1.162109	-0.262451	-0.555420
46553		6.468500	2.814119	5.400230	0.232185	0.334432	-0.235643	-1.168213	-0.262451	-0.568359
46554		6.601862	2.505140	5.423133	-0.024925	0.273149	-0.175043	-1.165771	-0.269287	-0.563477
46555		6.893642	1.559752	5.116786	-0.192648	0.228166	-0.155945	-1.148682	-0.269287	-0.565430
46556		7.836951	0.668031	4.773079	-0.310652	0.111601	-0.159145	-1.157715	-0.279541	-0.568848
46557		8.758277	-0.471565	4.004743	-0.404859	0.064570	-0.239749	-1.145752	-0.273193	-0.584717
46558		9.397205	-0.979707	3.628458	-0.350773	0.069198	-0.349486	-1.149414	-0.268799	-0.576660
46559		9.801864	-0.731842	3.471430	-0.235121	0.021222	-0.443001	-1.152588	-0.284912	-0.571045
46560		9.675448	-0.339220	2.991746	-0.176217	-0.001162	-0.518738	-1.146729	-0.279541	-0.574463
46561		9.094040	0.296611	3.184093	-0.081856	0.061310	-0.530202	-1.147705	-0.283936	-0.575928
46562		8.704446	1.108775	3.660405	-0.033565	-0.015102	-0.424260	-1.141846	-0.289307	-0.574219
46563		8.285299	1.351514	3.663848	-0.099052	-0.083690	-0.280477	-1.139160	-0.293213	-0.567871
46564		8.122463	1.075174	3.728156	-0.138816	-0.127127	-0.136958	-1.140625	-0.290283	-0.574707
46565		8.167246	0.676333	3.668859	-0.129442	-0.187512	-0.033634	-1.141602	-0.294189	-0.579590
46566		8.405272	0.211693	3.556854	-0.113175	-0.259060	0.048203	-1.147217	-0.291016	-0.574463
46567		8.491292	-0.207152	3.463958	-0.078547	-0.319619	0.090819	-1.151123	-0.286133	-0.564209
46568		8.410905	-0.490721	3.122473	-0.077066	-0.321039	0.082821	-1.149658	-0.296631	-0.562256
46569		8.061532	-0.289039	3.099880	0.023732	-0.284210	0.078678	-1.145996	-0.279541	-0.561768
46570		7.958089	0.022124	3.150377	0.060729	-0.274833	0.086785	-1.141846	-0.285645	-0.557129
46571		8.437630	0.109310	3.037079	0.053803	-0.346715	0.111931	-1.145752	-0.287354	-0.561523
46572		8.499965	0.166756	2.775388	0.059526	-0.357410	0.131449	-1.156006	-0.283691	-0.550049
46573		8.435941	0.149670	2.941901	0.075424	-0.312245	0.154985	-1.159912	-0.289551	-0.546631
46574		8.562273	0.242141	3.187208	0.101411	-0.335310	0.194595	-1.154541	-0.280518	-0.536621
46575		8.579948	0.362587	3.079201	0.104359	-0.342435	0.218991	-1.156982	-0.279053	-0.536865
46576		8.726078	0.503192	3.183690	0.095284	-0.317443	0.198235	-1.163330	-0.282227	-0.527344
46577		9.022688	0.426677	3.266408	0.063797	-0.376018	0.188739	-1.162842	-0.283447	-0.527100
46578		9.044723	0.218809	2.931679	0.045391	-0.459157	0.192750	-1.170654	-0.273193	-0.526855
46579		9.202534	0.259809	2.680271	0.057278	-0.484403	0.183624	-1.171387	-0.273682	-0.522217
46580		9.148634	-0.148820	2.486156	-0.017965	-0.394840	0.167368	-1.177002	-0.270508	-0.509033
46581		8.991402	-0.324221	2.477501	0.018900	-0.317053	0.169650	-1.175293	-0.265137	-0.506348
46582		8.920189	-0.328725	2.597647	0.073320	-0.258413	0.174284	-1.176514	-0.265625	-0.506836
46583		8.929172	-0.272050	2.687763	0.100606	-0.221042	0.175633	-1.173340	-0.266846	-0.493896
46584		9.029363	-0.394653	2.514667	0.093035	-0.207642	0.184723	-1.183838	-0.257324	-0.501709
46585		9.227683	-0.682556	2.274869	0.096957	-0.223899	0.190233	-1.184570	-0.268311	-0.498291
46586		9.320015	-0.815249	2.042427	0.126085	-0.205240	0.182094	-1.177002	-0.263428	-0.497559
46587		9.306336	-0.603959	1.894434	0.183282	-0.178377	0.170075	-1.186279	-0.265381	-0.491943
46588		9.188798	-0.297067	1.784935	0.199483	-0.150672	0.147404	-1.189209	-0.268799	-0.488281
46589		9.261378	-0.171228	1.574740	0.207316	-0.125025	0.140420	-1.185059	-0.255615	-0.489258
46590		9.194479	0.060032	1.588229	0.250788	-0.059043	0.120454	-1.186279	-0.260742	-0.488281
46591		8.871565	0.039433	1.791215	0.289982	0.024428	0.096504	-1.194580	-0.264404	-0.485352
46592		8.702211	-0.149327	1.999466	0.291918	0.017388	0.065688	-1.187988	-0.261719	-0.483643
46593		8.643534	-0.423454	1.825584	0.284765	-0.014802	0.038738	-1.187012	-0.261719	-0.492188
46594		8.868873	-0.523673	1.575707	0.288414	-0.054652	0.007409	-1.190430	-0.264648	-0.479492
46595		9.273388	-0.605892	1.243018	0.294649	-0.073991	-0.023209	-1.193848	-0.263672	-0.481445
46596		9.579655	-0.676161	0.970074	0.312860	-0.028119	-0.061712	-1.185059	-0.273193	-0.479004
46597		9.833877	-0.629683	0.891539	0.335853	0.032540	-0.111305	-1.188721	-0.267822	-0.475342
46598		9.811608	-0.588057	0.796577	0.335449	0.104683	-0.159355	-1.197510	-0.263672	-0.479492
46599		9.667860	-0.471601	0.809549	0.366412	0.189073	-0.205783	-1.186279	-0.282471	-0.478027
46600		9.705859	-0.286747	1.033396	0.396792	0.239288	-0.224939	-1.193604	-0.288086	-0.483643
46601		9.765077	-0.221223	1.249909	0.413928	0.269463	-0.214743	-1.186768	-0.290771	-0.482422
46602		9.291246	-0.137426	1.574942	0.446421	0.359314	-0.224532	-1.194824	-0.300049	-0.484375
46603		8.660443	0.098226	2.443048	0.448829	0.343653	-0.231467	-1.189453	-0.298584	-0.488770
46604		8.428629	-0.117969	2.956464	0.341007	0.114980	-0.216042	-1.184814	-0.312012	-0.489502
46605		8.966147	-0.591723	2.240997	0.306499	-0.121613	-0.199900	-1.185791	-0.310059	-0.489746
46606		9.845383	-0.932184	1.839342	0.322999	-0.144823	-0.199393	-1.184326	-0.317627	-0.487793
46607		10.292216	-0.914288	1.520762	0.351574	-0.112278	-0.206238	-1.185547	-0.325684	-0.475342
46608		10.597483	-0.675910	1.105749	0.358431	-0.113947	-0.188342	-1.177490	-0.329834	-0.482422
46609		10.848752	-0.513753	0.809031	0.348529	-0.136640	-0.146099	-1.185547	-0.322754	-0.471436
46610		11.091894	-0.510043	0.377680	0.359799	-0.169787	-0.089717	-1.180908	-0.327637	-0.469971
46611		11.441880	-0.499994	0.001976	0.382009	-0.189074	-0.032963	-1.191162	-0.330078	-0.474609
46612		11.607599	-0.642715	-0.205604	0.361797	-0.206973	0.024231	-1.195068	-0.329346	-0.468018
46613		11.584445	-1.185478	-0.396730	0.370029	-0.173056	0.070559	-1.196777	-0.330322	-0.455811
46614		11.401599	-1.572662	-0.673804	0.429998	-0.116373	0.097304	-1.198730	-0.331787	-0.462158
46615		12.334534	-1.863317	-0.066239	0.619642	0.112923	0.126875	-1.202148	-0.335205	-0.447510
46616		12.763639	-1.215578	0.754906	0.724845	0.425563	0.187404	-1.201904	-0.336426	-0.460693
46617		13.534543	0.948563	1.933125	0.867350	0.534713	0.314116	-1.194336	-0.343262	-0.453369
46618		13.161638	3.506283	3.573631	0.781731	0.538506	0.468837	-1.197266	-0.333496	-0.470459
46619		11.928770	5.344982	4.032643	0.510045	0.354984	0.554677	-1.194824	-0.325195	-0.470215
46620		11.562815	5.633711	3.906076	0.218322	0.329071	0.571104	-1.198486	-0.324219	-0.468262
46621		10.882991	4.328976	4.616014	-0.088798	0.587254	0.578471	-1.199951	-0.315186	-0.484619
46622		10.626774	2.905223	5.306535	-0.242533	0.493944	0.574228	-1.196289	-0.310303	-0.481201
46623		11.468121	2.329685	5.959560	-0.304034	0.431385	0.607456	-1.193359	-0.296875	-0.497070
46624		11.628341	1.512206	6.015220	-0.398075	0.485205	0.662260	-1.198242	-0.290283	-0.505371
46625		11.375523	0.660010	5.590263	-0.345749	0.402837	0.723504	-1.188721	-0.271729	-0.497803
46626		10.022415	0.052221	5.187558	-0.264914	0.455923	0.740746	-1.199219	-0.261719	-0.513916
46627		8.321492	-0.957355	4.654364	-0.215456	0.487506	0.658453	-1.187012	-0.254883	-0.523438
46628		6.942779	-1.096127	4.618762	0.077860	0.460761	0.515592	-1.190918	-0.248047	-0.530029
46629		6.321680	-0.856538	4.889551	0.213431	0.403324	0.380574	-1.182861	-0.234619	-0.525635
46630		6.425318	-0.747536	4.825735	0.270391	0.266307	0.251613	-1.186035	-0.236572	-0.525879
46631		7.190098	0.113162	4.583900	0.332614	0.129463	0.164583	-1.188232	-0.237793	-0.525879
46632		8.063781	1.223291	4.190572	0.348410	0.085176	0.139079	-1.187500	-0.234863	-0.531494
46633		8.700122	2.086283	3.885925	0.264376	0.094518	0.150238	-1.185791	-0.235107	-0.534912
46634		9.048777	2.730223	3.586427	0.150187	0.085002	0.199385	-1.182617	-0.230713	-0.532715
46635		9.035382	3.007898	3.469884	0.022531	0.045382	0.258619	-1.179932	-0.233887	-0.524414
46636		8.707381	2.554832	3.385734	-0.161289	0.002690	0.291926	-1.188965	-0.217773	-0.544678
46637		8.187159	1.456495	3.448880	-0.310215	-0.033082	0.257074	-1.184082	-0.214844	-0.532471
46638		7.830202	0.399496	3.465831	-0.378466	-0.094001	0.165090	-1.181885	-0.219238	-0.531494
46639		7.618496	-0.387068	3.561130	-0.391690	-0.172996	0.033961	-1.188232	-0.213623	-0.528564
46640		7.592169	-0.609165	3.556410	-0.360089	-0.280190	-0.092481	-1.179932	-0.212158	-0.531006
46641		7.874465	-0.512173	3.409259	-0.341811	-0.360493	-0.199806	-1.187256	-0.220703	-0.524902
46642		8.170083	-0.566991	3.059218	-0.344924	-0.387886	-0.261348	-1.192383	-0.215088	-0.516113
46643		8.397512	-0.570303	2.802580	-0.306840	-0.359412	-0.278228	-1.189941	-0.216309	-0.523926
46644		8.775344	-0.165682	2.574655	-0.216818	-0.318993	-0.256783	-1.191162	-0.218750	-0.516113
46645		8.961614	0.390579	2.677260	-0.159066	-0.220137	-0.208923	-1.190918	-0.229248	-0.507080
46646		8.908967	0.556104	2.842741	-0.174802	-0.180050	-0.161512	-1.193115	-0.226807	-0.513184
46647		9.010723	0.452279	2.956665	-0.226396	-0.269484	-0.138688	-1.196045	-0.220703	-0.513184
46648		9.224253	0.200188	2.655520	-0.319526	-0.402094	-0.146777	-1.195801	-0.219971	-0.503662
46649		9.412137	-0.139203	2.151099	-0.350984	-0.430959	-0.171190	-1.199219	-0.226074	-0.495605
46650		8.837358	-0.280049	2.049380	-0.315769	-0.334306	-0.195699	-1.201660	-0.224365	-0.500000
46651		8.472454	-0.392861	2.241335	-0.252985	-0.301433	-0.205067	-1.203857	-0.227539	-0.493652
46652		8.602725	-0.442802	2.257380	-0.181901	-0.360458	-0.210958	-1.209717	-0.230713	-0.494629
46653		8.942236	-0.460387	2.100888	-0.175858	-0.395778	-0.222512	-1.208252	-0.231689	-0.486084
46654		9.017123	-0.376839	1.840943	-0.142035	-0.364012	-0.216372	-1.201904	-0.224121	-0.480469
46655		8.870702	-0.111043	2.025282	-0.077969	-0.321723	-0.188666	-1.206787	-0.237793	-0.481201
46656		8.836788	0.291662	2.049635	-0.069187	-0.314009	-0.158282	-1.207520	-0.228516	-0.482422
46657		8.897505	0.608270	1.970680	-0.080793	-0.327006	-0.125885	-1.203369	-0.230957	-0.469971
46658		8.928694	0.637843	1.771316	-0.114071	-0.321450	-0.094158	-1.215820	-0.234619	-0.468750
46659		9.049494	0.652718	1.699560	-0.143961	-0.305372	-0.080754	-1.213867	-0.237061	-0.466064
46660		9.021102	0.289149	1.684282	-0.207735	-0.280246	-0.097436	-1.218750	-0.238281	-0.460205
46661		9.222944	0.055065	1.453506	-0.238757	-0.279427	-0.132985	-1.223633	-0.230713	-0.459961
46662		9.376279	0.082957	1.184603	-0.279157	-0.236801	-0.182751	-1.220215	-0.235840	-0.454102
46663		9.286758	0.115755	1.121551	-0.301548	-0.160778	-0.203376	-1.218018	-0.243652	-0.460449
46664		9.021974	0.087060	1.157923	-0.311692	-0.118028	-0.190976	-1.223145	-0.242676	-0.448486
46665		8.879942	0.107633	1.192195	-0.313699	-0.129012	-0.147614	-1.216797	-0.243652	-0.447998
46666		8.705148	0.166269	1.230807	-0.327907	-0.156408	-0.095824	-1.219727	-0.241211	-0.449951
46667		8.714367	0.236555	1.162079	-0.329496	-0.174128	-0.039359	-1.218018	-0.239502	-0.444580
46668		8.818511	0.405575	1.073977	-0.331381	-0.137863	0.031335	-1.224365	-0.245850	-0.446045
46669		8.647152	0.448179	0.932652	-0.325950	-0.101718	0.106200	-1.228760	-0.238037	-0.452637
46670		8.725360	0.452185	1.005098	-0.284054	-0.082428	0.188173	-1.221436	-0.239258	-0.445068
46671		8.850905	0.576083	1.213130	-0.229063	-0.076471	0.251139	-1.226318	-0.227295	-0.449463
46672		9.160191	0.417215	1.612250	-0.212972	-0.059944	0.294875	-1.227295	-0.230957	-0.451172
46673		9.207680	0.186280	2.055920	-0.190801	-0.034039	0.311210	-1.233643	-0.224365	-0.454346
46674		9.114386	0.081509	2.053435	-0.163916	-0.111078	0.318371	-1.228516	-0.219727	-0.437988
46675		9.506867	0.375620	1.985233	-0.090108	-0.205974	0.322735	-1.230225	-0.218994	-0.447754
46676		9.868659	0.827217	1.880854	-0.095190	-0.164105	0.312958	-1.236084	-0.211426	-0.429443
46677		9.973957	1.016888	1.973138	-0.096188	-0.058432	0.296619	-1.233398	-0.208252	-0.443604
46678		9.945488	1.402174	2.290833	-0.102776	-0.053166	0.260615	-1.236328	-0.210449	-0.442871
46679		10.133859	1.362977	2.006058	-0.202494	-0.146444	0.213810	-1.235107	-0.194092	-0.440674
46680		10.681019	1.261336	1.460663	-0.264729	-0.238487	0.176811	-1.240479	-0.199707	-0.437256
46681		11.428685	1.119444	0.832729	-0.351063	-0.310253	0.121068	-1.242676	-0.198730	-0.433105
46682		11.952589	0.787608	0.041013	-0.460346	-0.367119	0.052206	-1.232910	-0.193848	-0.420654
46683		12.246214	0.715662	-0.676381	-0.522377	-0.430775	-0.030433	-1.245117	-0.202881	-0.420410
46684		12.382191	0.920335	-1.394241	-0.565876	-0.423652	-0.125532	-1.244629	-0.199463	-0.409668
46685		12.960305	1.053897	-1.281856	-0.559050	-0.276141	-0.198149	-1.244141	-0.204590	-0.414795
46686		13.700159	1.028276	-0.254186	-0.541168	0.096929	-0.240783	-1.257568	-0.193359	-0.412598
46687		13.593507	0.161958	0.754292	-0.578834	0.456132	-0.285493	-1.245361	-0.196289	-0.423340
46688		13.119976	-1.310681	1.730338	-0.568848	0.614222	-0.331254	-1.241699	-0.197266	-0.437256
46689		12.536807	-2.017999	2.461745	-0.488861	0.521711	-0.383496	-1.233154	-0.206299	-0.436035
46690		12.678778	-2.220660	2.529653	-0.335581	0.399777	-0.400164	-1.234375	-0.209473	-0.439453
46691		13.009716	-2.021610	2.785590	-0.089332	0.509599	-0.392345	-1.226074	-0.211914	-0.445801
46692		12.715215	-1.424184	3.450600	0.178154	0.647314	-0.361688	-1.222168	-0.218994	-0.464844
46693		11.689158	-1.197603	3.828331	0.260209	0.571235	-0.312861	-1.215332	-0.220947	-0.461670
46694		10.976505	-0.897179	3.394338	0.277005	0.311199	-0.283469	-1.217773	-0.222656	-0.469971
46695		10.361283	0.151473	3.106737	0.302883	0.240739	-0.314882	-1.218750	-0.236572	-0.467773
46696		9.265606	1.433381	3.566670	0.273285	0.312013	-0.339214	-1.208984	-0.241943	-0.468262
46697		7.780384	2.343581	4.286864	0.140797	0.377094	-0.345099	-1.207764	-0.237305	-0.470703
46698		6.731719	2.490345	4.871546	-0.040381	0.365455	-0.326630	-1.202881	-0.239746	-0.486084
46699		6.539418	2.378595	4.988062	-0.239689	0.255279	-0.305391	-1.194336	-0.247070	-0.478516
46700		6.856558	1.431252	4.542300	-0.431325	0.136276	-0.277117	-1.195068	-0.248291	-0.487061
46701		7.517153	0.207312	3.899982	-0.525628	0.134691	-0.290111	-1.195068	-0.251465	-0.489258
46702		8.406780	-0.685960	3.774745	-0.486890	0.110981	-0.293648	-1.191650	-0.249756	-0.485352
46703		8.955905	-1.559412	3.355410	-0.436962	0.045382	-0.270386	-1.192871	-0.243164	-0.491211
46704		9.409418	-1.921453	2.869174	-0.276234	-0.041750	-0.275649	-1.187500	-0.242188	-0.493164
46705		9.677792	-1.622580	2.586881	-0.080606	-0.088407	-0.275788	-1.187256	-0.251465	-0.494385
46706		9.653770	-1.362028	2.645410	0.015394	-0.106074	-0.272748	-1.190186	-0.257324	-0.493164
46707		9.366124	-1.153471	2.579587	0.063231	-0.148202	-0.258101	-1.191406	-0.263184	-0.495117
46708		9.450884	-0.436997	2.646305	0.111991	-0.162548	-0.247400	-1.182861	-0.264160	-0.482178
46709		9.542180	0.007649	2.649355	0.101411	-0.146326	-0.198457	-1.187988	-0.267578	-0.492676
46710		9.248535	0.199187	2.746650	0.084632	-0.087934	-0.126374	-1.176514	-0.269775	-0.491943
46711		9.072067	0.078134	3.183416	0.098030	-0.056861	-0.067847	-1.181396	-0.280029	-0.486816
46712		8.889807	-0.205443	3.163868	0.062121	-0.124514	0.000579	-1.188721	-0.274414	-0.483154
46713		8.530288	-0.449242	3.031146	0.125091	-0.169076	0.045212	-1.186523	-0.271240	-0.472656
46714		8.637391	-0.289250	2.945926	0.180443	-0.246486	0.068119	-1.187500	-0.271729	-0.473877
46715		8.480797	-0.480315	2.881036	0.201621	-0.284234	0.079572	-1.199951	-0.266846	-0.471924
46716		8.443582	-0.549455	2.788336	0.224090	-0.320325	0.091508	-1.194092	-0.268555	-0.472900
46717		8.607170	-0.533711	2.753701	0.229276	-0.332121	0.107228	-1.193848	-0.264893	-0.460449
46718		8.534918	-0.147570	2.627235	0.266011	-0.327133	0.109983	-1.196777	-0.262207	-0.456787
46719		8.760190	0.210031	2.721945	0.277839	-0.337513	0.122128	-1.193604	-0.268799	-0.458008
46720		8.878398	0.354502	2.427122	0.259001	-0.349107	0.140932	-1.199463	-0.269531	-0.449951
46721		9.095275	0.285430	2.420019	0.241495	-0.322848	0.168551	-1.196533	-0.263916	-0.446777
46722		9.740364	0.012825	2.456568	0.176528	-0.347344	0.190036	-1.200684	-0.259521	-0.440430
46723		10.071355	-0.023737	2.029500	0.147704	-0.355570	0.211426	-1.204102	-0.269531	-0.435791
46724		9.796782	-0.144508	1.867556	0.147755	-0.236490	0.204836	-1.209961	-0.262939	-0.434082
46725		9.564142	-0.121830	2.027874	0.179415	-0.128488	0.206433	-1.199707	-0.264160	-0.434814
46726		9.201841	-0.246056	2.002735	0.203957	-0.031260	0.211353	-1.204102	-0.262451	-0.442139
46727		8.972041	-0.357852	2.047549	0.226668	0.034059	0.218041	-1.208252	-0.250488	-0.438477
46728		8.673848	-0.531398	2.002968	0.254583	0.055923	0.215984	-1.202881	-0.260498	-0.433594
46729		8.505138	-0.387889	1.977936	0.295401	0.042253	0.199837	-1.205566	-0.256592	-0.434814
46730		8.347745	-0.170277	2.060581	0.302811	0.020261	0.168653	-1.214600	-0.254639	-0.434082
46731		8.373039	-0.017577	2.074210	0.261569	-0.025375	0.130422	-1.208008	-0.258057	-0.432129
46732		8.458647	0.113902	1.793798	0.215748	-0.076717	0.095426	-1.210205	-0.253174	-0.431152
46733		8.785246	0.201387	1.494951	0.179311	-0.080226	0.051082	-1.211914	-0.253174	-0.431396
46734		8.955851	0.277595	1.210716	0.168340	-0.024232	0.010674	-1.213867	-0.250732	-0.433105
46735		9.242898	0.272148	1.193804	0.142668	0.046447	-0.022860	-1.212891	-0.252197	-0.427734
46736		9.440759	0.085197	1.042106	0.105786	0.124468	-0.059744	-1.213623	-0.253418	-0.429932
46737		9.519457	-0.066670	1.123680	0.079461	0.213082	-0.088900	-1.199951	-0.258057	-0.425049
46738		9.567357	-0.470905	1.082220	0.039439	0.221316	-0.112964	-1.213135	-0.262939	-0.430420
46739		9.505118	-0.756582	0.926187	0.068861	0.235849	-0.145955	-1.207031	-0.265137	-0.431152
46740		9.324557	-0.856554	1.185973	0.112531	0.277818	-0.175665	-1.206055	-0.257813	-0.442383
46741		9.211029	-0.975810	1.400902	0.147275	0.255210	-0.198462	-1.203125	-0.271484	-0.448486
46742		9.372027	-1.207140	1.260548	0.185330	0.154374	-0.200828	-1.208252	-0.272949	-0.445068
46743		9.457105	-1.117485	0.868295	0.303335	0.121146	-0.204953	-1.203369	-0.279053	-0.440918
46744		9.338445	-0.683490	1.250158	0.415166	0.250584	-0.200535	-1.209229	-0.286377	-0.450195
46745		9.111003	-0.496408	1.944784	0.432820	0.237658	-0.195718	-1.199951	-0.286133	-0.448730
46746		9.066724	-0.411294	1.811149	0.487040	0.044363	-0.175504	-1.207764	-0.291748	-0.453369
46747		9.405645	-0.408159	1.729267	0.507500	-0.022866	-0.161530	-1.203125	-0.295898	-0.440918
46748		9.636739	-0.655712	2.062983	0.518887	-0.001745	-0.147523	-1.204346	-0.302490	-0.446777
46749		9.582698	-0.710620	2.210772	0.553417	-0.005853	-0.146874	-1.198486	-0.306152	-0.440674
46750		9.654215	-0.427108	1.997762	0.556631	-0.052518	-0.123852	-1.217773	-0.308105	-0.437744
46751		9.923213	-0.043554	1.568090	0.524274	-0.113851	-0.079369	-1.205322	-0.311768	-0.431152
46752		10.544206	0.046400	1.065561	0.469925	-0.199129	-0.025374	-1.203857	-0.314453	-0.430908
46753		11.434802	-0.094209	0.465968	0.414343	-0.270011	0.015123	-1.209473	-0.316406	-0.430664
46754		12.003800	-0.284857	0.007591	0.355602	-0.293916	0.041679	-1.208496	-0.319336	-0.416260
46755		12.202024	-0.573298	-0.463142	0.246908	-0.334396	0.070758	-1.207031	-0.319336	-0.409668
46756		13.063812	-1.505530	-0.503917	0.218483	-0.186440	0.096711	-1.216309	-0.315918	-0.412842
46757		13.379352	-1.652877	-0.075958	0.406921	0.190744	0.166068	-1.206787	-0.319580	-0.411133
46758		13.091584	-0.363327	0.979071	0.559569	0.485681	0.228589	-1.215088	-0.306152	-0.419434
46759		12.172385	1.119368	2.136988	0.632594	0.625474	0.271111	-1.220459	-0.314941	-0.427002
46760		11.244959	2.389035	3.599108	0.538916	0.598109	0.278578	-1.211182	-0.318604	-0.434570
46761		10.764603	3.046340	4.395608	0.258507	0.416795	0.264355	-1.217529	-0.310303	-0.433594
46762		10.960862	3.033174	3.911791	0.036458	0.334877	0.238667	-1.213135	-0.312012	-0.441162
46763		11.803832	2.663361	3.129647	-0.135568	0.282287	0.258817	-1.203369	-0.306641	-0.442871
46764		12.462791	1.935537	2.908303	-0.246560	0.215598	0.332080	-1.203857	-0.288574	-0.440674
46765		13.107662	0.912975	3.129257	-0.285189	0.269207	0.425116	-1.219971	-0.287598	-0.451660
46766		12.337307	0.135267	3.166946	-0.251920	0.423694	0.490688	-1.204590	-0.281982	-0.454346
46767		10.805859	0.065761	3.440556	-0.140931	0.527697	0.494213	-1.205566	-0.280029	-0.470459
46768		8.995368	-0.176183	3.839617	-0.052658	0.597906	0.462490	-1.204102	-0.266602	-0.469482
46769		7.400351	-0.583483	4.257755	0.073934	0.592596	0.399334	-1.201660	-0.257568	-0.480469
46770		6.403853	-0.538052	4.689617	0.249885	0.497866	0.322240	-1.207275	-0.259033	-0.478760
46771		5.748935	-0.088177	4.708939	0.362617	0.421290	0.291251	-1.202393	-0.252197	-0.480713
46772		5.647441	0.513553	4.579120	0.412974	0.370058	0.275742	-1.205078	-0.252441	-0.490479
46773		6.264904	1.309260	4.340570	0.429749	0.253254	0.261554	-1.201660	-0.253174	-0.487549
46774		7.379883	1.920477	3.959294	0.388211	0.134465	0.261552	-1.198242	-0.251221	-0.500977
46775		8.591711	2.150753	3.608586	0.293594	0.046244	0.255139	-1.200439	-0.245361	-0.493164
46776		9.562348	2.299241	3.236629	0.176344	-0.037268	0.231721	-1.202148	-0.244385	-0.487061
46777		10.065080	2.418677	3.022557	0.038977	-0.097547	0.195252	-1.204102	-0.240967	-0.491455
46778		10.078714	2.138833	2.790733	-0.094209	-0.124717	0.174043	-1.200684	-0.247314	-0.482910
46779		9.863072	1.592315	2.791137	-0.182991	-0.101897	0.171661	-1.206299	-0.231201	-0.489990
46780		9.434141	0.902208	2.929501	-0.227867	-0.060901	0.178319	-1.208252	-0.244385	-0.481689
46781		9.189097	0.264554	3.111015	-0.249289	-0.093937	0.152507	-1.210693	-0.232422	-0.490234
46782		9.244651	-0.202293	3.106285	-0.258589	-0.156128	0.103505	-1.197266	-0.219482	-0.488770
46783		9.290142	-0.383824	2.952813	-0.258704	-0.200374	0.026737	-1.206787	-0.229492	-0.485596
46784		9.286077	-0.501488	2.847682	-0.265721	-0.212057	-0.052131	-1.213135	-0.224121	-0.484863
46785		9.040345	-0.455107	2.867382	-0.234342	-0.213466	-0.112895	-1.213867	-0.226807	-0.476074
46786		8.661932	0.015847	2.828952	-0.164672	-0.211800	-0.161138	-1.206543	-0.231201	-0.481689
46787		8.443285	0.463970	2.941131	-0.179335	-0.197978	-0.194544	-1.210205	-0.228516	-0.483398
46788		8.316427	0.547191	2.827662	-0.199146	-0.182131	-0.195735	-1.214600	-0.223633	-0.475830
46789		8.225326	0.230947	2.830098	-0.187551	-0.123909	-0.179189	-1.211182	-0.229248	-0.473389
46790		8.049248	0.111340	3.021430	-0.129746	-0.122196	-0.181145	-1.208984	-0.232178	-0.470703
46791		8.284242	0.233894	3.052880	-0.127805	-0.225122	-0.191941	-1.220947	-0.240479	-0.469971
46792		8.622578	0.356118	2.603928	-0.169840	-0.320669	-0.214773	-1.213379	-0.235107	-0.478271
46793		8.464395	0.674856	2.328313	-0.159418	-0.284595	-0.221274	-1.218262	-0.241943	-0.465088
46794		8.448975	0.683479	2.535528	-0.152263	-0.263523	-0.197366	-1.211914	-0.233887	-0.466064
46795		8.516713	0.661358	2.493911	-0.171544	-0.299375	-0.184502	-1.211426	-0.249023	-0.464844
46796		8.833156	0.608049	2.244264	-0.203245	-0.355009	-0.171300	-1.214355	-0.245361	-0.451172
46797		9.095403	0.393427	1.982605	-0.217594	-0.317253	-0.170103	-1.210938	-0.243896	-0.450439
46798		9.167060	0.204931	1.994396	-0.191671	-0.267682	-0.174095	-1.219482	-0.252441	-0.457520
46799		8.906343	0.062921	2.067800	-0.166758	-0.203994	-0.179448	-1.220947	-0.254150	-0.448975
46800		8.655078	0.173956	2.171826	-0.109971	-0.160499	-0.200177	-1.225342	-0.252930	-0.450195
46801		8.817884	0.294764	2.177088	-0.139765	-0.190697	-0.214566	-1.225342	-0.256104	-0.452637
46802		9.140332	0.241571	1.983531	-0.179398	-0.224022	-0.212014	-1.227051	-0.255859	-0.437500
46803		9.369378	0.199814	1.662293	-0.172068	-0.215131	-0.180247	-1.219971	-0.256348	-0.445068
46804		9.538403	0.206343	1.606250	-0.140871	-0.155670	-0.138362	-1.225586	-0.262939	-0.434814
46805		9.603070	0.267750	1.440847	-0.116121	-0.127942	-0.096975	-1.234619	-0.260986	-0.440186
46806		9.696567	0.465721	1.461180	-0.099340	-0.075634	-0.046994	-1.230469	-0.253906	-0.441162
46807		9.849601	0.591208	1.400572	-0.112070	-0.046619	-0.005670	-1.238525	-0.260498	-0.443359
46808		10.071076	0.748169	1.266320	-0.123968	-0.006261	0.021770	-1.228027	-0.255859	-0.439697
46809		9.940567	0.702057	1.121791	-0.156781	0.094694	0.048713	-1.229492	-0.257813	-0.448730
46810		9.545350	0.613889	1.118357	-0.145199	0.178579	0.069824	-1.227295	-0.257813	-0.442383
46811		9.234418	0.618789	1.221148	-0.138415	0.179765	0.088034	-1.221924	-0.264160	-0.442383
46812		9.181026	0.496886	1.031939	-0.156818	0.178363	0.097816	-1.222412	-0.257568	-0.453369
46813		9.143832	0.463529	1.008356	-0.163427	0.218409	0.108836	-1.233154	-0.255859	-0.451660
46814		9.097112	0.300381	1.075817	-0.184768	0.242638	0.123393	-1.236328	-0.252441	-0.451172
46815		9.017914	0.234912	1.035962	-0.175336	0.257301	0.147059	-1.226563	-0.258545	-0.459961
46816		8.949052	0.436593	1.350538	-0.124910	0.254038	0.167646	-1.233154	-0.245605	-0.459229
46817		9.005898	0.929298	1.633304	-0.103453	0.211271	0.184740	-1.223633	-0.241943	-0.458252
46818		9.110496	1.260855	1.582804	-0.129954	0.174889	0.194385	-1.222168	-0.248535	-0.474609
46819		9.457336	1.531777	1.363945	-0.146583	0.131507	0.193449	-1.227539	-0.237793	-0.466797
46820		10.130116	1.780750	1.760426	-0.111405	0.174834	0.184527	-1.231445	-0.237305	-0.471191
46821		10.082892	1.646804	1.973495	-0.203644	0.243390	0.177994	-1.223389	-0.235596	-0.478027
46822		10.165715	1.251893	1.630638	-0.267468	0.149884	0.173516	-1.228027	-0.234375	-0.478516
46823		10.542941	1.119168	1.397348	-0.319732	0.112598	0.144539	-1.227539	-0.224854	-0.479248
46824		10.658322	0.959420	1.265268	-0.367249	0.125171	0.109573	-1.224365	-0.225586	-0.480469
46825		10.687523	0.837224	1.226161	-0.381163	0.107554	0.075016	-1.218506	-0.232910	-0.484375
46826		10.753884	0.967588	1.066835	-0.392383	0.082976	0.036608	-1.233643	-0.226074	-0.489502
46827		10.836647	0.947046	0.829189	-0.414185	0.056260	0.007160	-1.231934	-0.219727	-0.484131
46828		10.960437	0.843594	0.649334	-0.415403	0.017969	-0.017938	-1.227783	-0.230225	-0.490967
46829		10.948828	0.675432	0.428224	-0.429321	-0.001236	-0.031033	-1.226807	-0.222168	-0.489014
46830		10.913289	0.508493	0.275957	-0.443675	-0.039702	-0.031698	-1.225098	-0.215820	-0.489258
46831		11.802662	0.701915	0.417216	-0.391061	-0.008484	-0.043706	-1.220459	-0.222412	-0.488281
46832		12.542371	0.769512	1.297513	-0.349295	0.247838	-0.055858	-1.216309	-0.219238	-0.486572
46833		12.879840	-0.313597	2.113712	-0.387674	0.410097	-0.112993	-1.218506	-0.218262	-0.498535
46834		12.838571	-1.678153	2.521580	-0.336098	0.412765	-0.205134	-1.208984	-0.217041	-0.505615
46835		12.463918	-2.048902	3.229181	-0.154696	0.412325	-0.310238	-1.214600	-0.222656	-0.505859
46836		12.451031	-2.027469	3.969134	-0.015820	0.269156	-0.380531	-1.212402	-0.224121	-0.512207
46837		12.524181	-2.198823	3.193280	0.063151	0.142162	-0.426116	-1.202148	-0.226807	-0.513916
46838		11.550460	-1.896059	2.662934	0.210670	0.295257	-0.437202	-1.192627	-0.228027	-0.515137
46839		10.934651	-0.653379	2.559501	0.369949	0.185507	-0.430427	-1.197510	-0.250000	-0.514404
46840		11.375305	0.667744	2.061978	0.350259	0.106936	-0.403164	-1.200195	-0.250488	-0.516357
46841		11.037557	1.584067	2.754654	0.304649	0.355697	-0.352784	-1.198730	-0.261475	-0.515869
46842		9.743482	1.903880	3.676563	0.213699	0.496415	-0.274942	-1.181885	-0.253906	-0.520996
46843		8.743334	1.559965	4.301842	0.081783	0.432642	-0.203793	-1.175537	-0.260742	-0.524902
46844		7.706263	1.292032	4.419452	-0.032454	0.379564	-0.178447	-1.183350	-0.257568	-0.533936
46845		6.868616	1.066810	4.612152	-0.125765	0.370989	-0.181684	-1.180420	-0.262939	-0.537598
46846		6.395896	0.801984	4.960063	-0.236100	0.350203	-0.207433	-1.175293	-0.266113	-0.552490
46847		6.566935	0.359519	4.869434	-0.330756	0.266028	-0.231947	-1.173584	-0.267822	-0.547363
46848		6.986313	-0.346836	4.389716	-0.386868	0.213102	-0.287284	-1.165527	-0.269287	-0.553711
46849		7.149955	-1.081966	4.049260	-0.337499	0.205510	-0.340059	-1.162842	-0.268066	-0.551025
46850		7.528359	-1.596074	3.969464	-0.251076	0.139509	-0.379085	-1.160889	-0.279541	-0.555420
46851		7.864491	-1.647464	3.499999	-0.145550	0.015604	-0.409183	-1.167236	-0.273193	-0.561279
46852		8.362419	-1.360003	3.296791	-0.010822	-0.079156	-0.397401	-1.157471	-0.271973	-0.557129
46853		8.591709	-1.166571	3.068103	0.055099	-0.151399	-0.349624	-1.163574	-0.281494	-0.546387
46854		8.895962	-0.915106	2.886691	0.123740	-0.141884	-0.278927	-1.150879	-0.290283	-0.545166
46855		9.156551	-0.667352	3.076624	0.140938	-0.177558	-0.182629	-1.159180	-0.289307	-0.553711
46856		9.806198	-0.305606	2.827206	0.199403	-0.266803	-0.087111	-1.162354	-0.293213	-0.544922
46857		10.317663	0.034053	2.655945	0.214397	-0.280182	-0.018951	-1.154541	-0.290771	-0.543213
46858		10.358240	-0.010638	2.563583	0.190341	-0.255170	0.030285	-1.161621	-0.300781	-0.533936
46859		9.980688	0.168986	2.630875	0.229447	-0.184277	0.039781	-1.161377	-0.298096	-0.539063
46860		9.536523	0.497832	3.017718	0.221237	-0.146221	0.033912	-1.166504	-0.301270	-0.537109
46861		9.102713	0.725989	3.149017	0.186471	-0.150552	0.017829	-1.163574	-0.292236	-0.528076
46862		8.711807	0.922947	3.253236	0.137596	-0.160171	-0.004624	-1.165039	-0.287598	-0.533691
46863		8.394012	0.873040	3.279762	0.083167	-0.210715	-0.022321	-1.175781	-0.297363	-0.526367
46864		8.144471	0.784164	3.142701	0.054382	-0.316445	-0.013610	-1.164551	-0.300537	-0.524658
46865		8.162251	0.763048	3.106020	0.047823	-0.403171	0.019337	-1.168701	-0.297607	-0.509277
46866		8.170513	0.493010	3.069613	0.044540	-0.517988	0.081086	-1.170898	-0.299561	-0.514160
46867		8.549166	0.269903	2.851072	0.118407	-0.630282	0.171122	-1.168701	-0.296875	-0.501709
46868		9.360208	0.133659	2.533038	0.103897	-0.733929	0.245451	-1.187744	-0.306152	-0.497559
46869		9.729950	-0.343870	2.117021	0.088910	-0.669251	0.283746	-1.182617	-0.299072	-0.488281
46870		9.786258	-0.685070	1.925034	0.131356	-0.490859	0.299543	-1.185791	-0.291016	-0.479248
46871		9.727472	-0.741650	2.098924	0.182545	-0.338739	0.288478	-1.191162	-0.283936	-0.465088
46872		9.702262	-0.713055	2.136983	0.201491	-0.252762	0.256809	-1.189941	-0.296875	-0.468018
46873		9.561251	-0.731348	2.080727	0.196197	-0.170573	0.222551	-1.192871	-0.280518	-0.469238
46874		9.458884	-0.686230	1.958367	0.228521	-0.086098	0.187686	-1.195313	-0.284180	-0.466064
46875		9.332390	-0.390189	1.875428	0.269282	-0.008960	0.154281	-1.192871	-0.277832	-0.472656
46876		9.003419	-0.266546	1.869565	0.310525	0.089750	0.113361	-1.197266	-0.279053	-0.471191
46877		8.541075	-0.053623	1.919181	0.344594	0.162556	0.052995	-1.189697	-0.274414	-0.464844
46878		8.145510	0.248386	2.286315	0.346314	0.230737	-0.019098	-1.194336	-0.286377	-0.468262
46879		8.158662	0.377510	2.268339	0.285035	0.167032	-0.061474	-1.195557	-0.296143	-0.469971
46880		8.511249	0.174528	1.602146	0.234004	0.064728	-0.081648	-1.191895	-0.284668	-0.472168
46881		8.710050	-0.167184	1.003903	0.260753	0.068307	-0.107058	-1.192383	-0.294189	-0.476318
46882		8.894994	-0.351454	0.858298	0.293381	0.073887	-0.131323	-1.187744	-0.302246	-0.468262
46883		9.018189	-0.694324	0.667234	0.292451	0.027574	-0.146375	-1.183594	-0.302734	-0.472168
46884		9.102661	-0.850139	0.418687	0.309537	-0.063107	-0.156035	-1.196045	-0.303467	-0.473877
46885		9.206861	-1.113405	-0.002940	0.309550	-0.194175	-0.169357	-1.188965	-0.312256	-0.461670
46886		9.183456	-1.231172	-0.522444	0.409833	-0.281699	-0.171250	-1.201416	-0.309082	-0.461426
46887		9.303291	-1.054217	-0.349245	0.620154	-0.216461	-0.182496	-1.198242	-0.312256	-0.460938
46888		9.280601	-0.547716	0.855313	0.786550	0.014234	-0.178398	-1.196533	-0.311523	-0.456055
46889		9.263951	-0.419153	2.527541	0.741804	0.154477	-0.173276	-1.203613	-0.330811	-0.455078
46890		8.886203	-0.473462	3.467871	0.603270	0.039923	-0.189464	-1.191895	-0.328613	-0.445068
46891		9.362539	-0.389565	2.914015	0.543437	-0.207326	-0.200944	-1.195068	-0.345947	-0.452393
46892		9.858849	0.005520	1.996113	0.470282	-0.272308	-0.196137	-1.193848	-0.350098	-0.439697
46893		10.175666	0.867357	1.845113	0.430871	-0.248744	-0.145515	-1.193359	-0.350098	-0.439209
46894		10.561788	1.932464	1.735085	0.317350	-0.335853	-0.015589	-1.210205	-0.344482	-0.434082
46895		11.291737	2.031902	0.921231	0.104524	-0.535858	0.140604	-1.200684	-0.344971	-0.427979
46896		12.166854	1.187345	0.121134	-0.185944	-0.629247	0.249009	-1.204102	-0.336670	-0.417236
46897		12.264099	-0.348309	-0.622770	-0.447237	-0.685584	0.291429	-1.209961	-0.335693	-0.407227
46898		13.481389	-1.968451	-0.877782	-0.414435	-0.736447	0.294779	-1.223633	-0.334961	-0.398438
46899		14.488541	-2.722363	-1.004595	-0.159527	-0.413357	0.302868	-1.220947	-0.331543	-0.395020
46900		14.576037	-2.262347	-0.784036	0.149378	0.063275	0.354448	-1.215088	-0.321777	-0.399658
46901		13.645124	-0.575119	0.115649	0.534199	0.607014	0.367125	-1.218994	-0.322510	-0.403076
46902		11.733520	1.561388	1.723918	0.758249	0.883028	0.356804	-1.222412	-0.328369	-0.408203
46903		11.205575	3.360136	4.050478	0.664130	0.762242	0.393483	-1.218262	-0.313477	-0.421143
46904		10.829732	4.134986	4.617499	0.163479	0.419728	0.439296	-1.209961	-0.320313	-0.420898
46905		10.761691	3.703598	3.705256	-0.210924	0.246546	0.469518	-1.215088	-0.298828	-0.428467
46906		10.605965	2.616906	3.821287	-0.390432	0.301625	0.489304	-1.213135	-0.293701	-0.430420
46907		10.549706	1.066778	4.754958	-0.478287	0.363481	0.517231	-1.213623	-0.285645	-0.431396
46908		9.992907	-0.125070	5.027254	-0.445666	0.340587	0.542023	-1.210938	-0.270996	-0.443604
46909		9.164229	0.337222	5.097731	-0.270126	0.341089	0.542935	-1.218018	-0.271729	-0.443115
46910		7.878680	0.613357	4.829804	-0.297840	0.395545	0.526789	-1.211426	-0.257813	-0.449951
46911		6.837731	0.622531	4.568108	-0.242253	0.378963	0.462405	-1.212402	-0.245605	-0.449951
46912		6.494214	0.845616	4.389642	-0.135679	0.329918	0.378209	-1.204102	-0.242188	-0.463379
46913		6.803840	0.669816	4.673747	-0.092950	0.348272	0.310339	-1.203369	-0.233643	-0.460938
46914		7.574819	0.862412	4.985746	-0.041729	0.291983	0.257900	-1.207275	-0.239502	-0.470459
46915		8.716593	1.565179	4.702445	-0.036403	0.140155	0.228771	-1.195068	-0.240479	-0.465576
46916		9.833542	2.326867	4.103317	-0.061217	0.038576	0.227860	-1.215088	-0.231934	-0.471191
46917		10.648919	2.502943	3.774554	-0.133918	0.027262	0.249597	-1.210938	-0.226563	-0.469971
46918		10.590228	1.798313	3.652836	-0.235523	0.046925	0.281659	-1.201416	-0.222412	-0.463867
46919		9.960499	1.014196	3.628685	-0.266080	0.045604	0.287650	-1.212646	-0.212402	-0.471680
46920		9.280235	0.271868	3.727856	-0.272546	0.017435	0.261163	-1.210938	-0.218262	-0.474854
46921		8.719288	-0.660160	3.667599	-0.277383	-0.011630	0.194218	-1.206543	-0.206787	-0.477783
46922		8.360339	-1.001472	3.672394	-0.194985	-0.052300	0.083097	-1.216064	-0.208740	-0.464111
46923		8.063097	-1.039259	3.564317	-0.132649	-0.117379	-0.018767	-1.206787	-0.203857	-0.477783
46924		8.162884	-0.891466	3.223552	-0.063217	-0.220552	-0.099667	-1.214844	-0.211670	-0.470215
46925		8.250372	-0.613052	2.881517	0.026071	-0.304298	-0.115799	-1.223389	-0.210693	-0.463623
46926		8.409029	-0.294243	2.539677	0.078212	-0.346795	-0.132272	-1.211914	-0.200439	-0.469238
46927		8.712682	0.165201	2.253395	0.107466	-0.319290	-0.111833	-1.216064	-0.213623	-0.457031
46928		8.763128	0.443219	2.001986	0.142029	-0.262200	-0.088332	-1.216064	-0.213135	-0.458008
46929		8.353501	0.571835	2.032736	0.157660	-0.141756	-0.082763	-1.221191	-0.206543	-0.454834
46930		8.570641	0.623878	2.224026	0.143606	-0.139968	-0.115766	-1.225098	-0.218506	-0.453369
46931		8.771408	0.652596	1.980203	0.055267	-0.168819	-0.169719	-1.216064	-0.222656	-0.451660
46932		8.547135	0.478282	1.851576	0.015606	-0.070688	-0.203240	-1.219971	-0.220215	-0.441162
46933		8.680065	0.155661	2.204840	0.027388	-0.048992	-0.231476	-1.215576	-0.230957	-0.449707
46934		8.765613	0.233619	2.237206	-0.035143	-0.119977	-0.248090	-1.218262	-0.230225	-0.448486
46935		8.770302	0.188432	2.074792	-0.066292	-0.166147	-0.246093	-1.222168	-0.234375	-0.446533
46936		8.963609	0.413791	1.776551	-0.035218	-0.195166	-0.208132	-1.221680	-0.228516	-0.454834
46937		9.137152	0.617590	1.544333	-0.034207	-0.198664	-0.180432	-1.223145	-0.235596	-0.438477
46938		9.301620	0.330073	1.535287	-0.030321	-0.151594	-0.156589	-1.223633	-0.236084	-0.442627
46939		9.335998	0.072340	1.609586	0.011107	-0.112925	-0.117739	-1.216064	-0.242676	-0.435303
46940		9.286207	-0.037482	1.736252	0.082522	-0.067856	-0.073940	-1.223877	-0.239502	-0.438232
46941		9.406956	-0.141618	1.547432	0.092354	-0.020542	-0.036777	-1.222168	-0.236084	-0.437012
46942		9.538489	-0.355396	1.282223	0.106581	0.015004	-0.002135	-1.220703	-0.248047	-0.429932
46943		9.508400	-0.483755	1.267446	0.139912	0.064457	0.021338	-1.232178	-0.231689	-0.440918
46944		9.312510	-0.324923	1.086934	0.166834	0.082713	0.041408	-1.220947	-0.248779	-0.435791
46945		9.130694	-0.022418	1.056941	0.175674	0.084916	0.066255	-1.223877	-0.244629	-0.443604
46946		9.084446	0.222417	0.940315	0.170751	0.077698	0.083325	-1.224609	-0.247314	-0.441895
46947		8.955407	0.510881	0.995904	0.145131	0.063108	0.096600	-1.229980	-0.250977	-0.441895
46948		8.828132	0.821296	0.950135	0.106962	0.021907	0.103230	-1.228271	-0.243896	-0.428711
46949		8.928086	1.153179	0.993364	0.055866	-0.007410	0.106466	-1.226807	-0.250488	-0.438721
46950		8.961168	1.302360	0.993523	-0.020550	0.002981	0.112725	-1.226318	-0.241943	-0.442139
46951		9.126931	1.340227	1.026212	-0.060342	0.014241	0.135067	-1.224854	-0.238770	-0.444580
46952		9.336100	1.320167	1.110292	-0.093889	0.048311	0.178251	-1.229004	-0.230469	-0.443115
46953		9.518253	1.135730	1.094349	-0.166065	0.089592	0.215385	-1.229980	-0.241943	-0.437012
46954		9.741096	0.968883	1.023342	-0.202153	0.167691	0.241953	-1.236816	-0.223877	-0.440430
46955		9.903087	0.956518	1.435908	-0.166792	0.266446	0.270344	-1.234619	-0.226074	-0.439453
46956		9.728977	0.772394	1.662127	-0.222792	0.284453	0.281712	-1.233643	-0.224365	-0.455322
46957		9.963383	0.819077	1.645532	-0.241956	0.215591	0.274697	-1.222900	-0.212158	-0.450684
46958		10.280800	0.982035	1.738843	-0.250762	0.257036	0.239760	-1.226074	-0.218262	-0.455078
46959		10.023254	0.858402	2.197633	-0.253470	0.330492	0.202120	-1.234863	-0.215332	-0.457764
46960		9.540006	0.568262	2.354288	-0.265568	0.255939	0.159258	-1.226807	-0.211670	-0.468262
46961		9.290524	0.248291	1.864447	-0.258529	0.056391	0.127554	-1.226807	-0.214600	-0.467285
46962		9.364106	0.173591	1.333195	-0.286735	-0.171987	0.072386	-1.233154	-0.204346	-0.458008
46963		10.061117	0.451052	0.749193	-0.295646	-0.381527	0.003621	-1.229248	-0.210693	-0.458252
46964		10.906431	1.039450	0.070136	-0.327308	-0.484674	-0.065227	-1.229248	-0.201904	-0.446777
46965		11.845708	1.468711	-0.490344	-0.395910	-0.604144	-0.121629	-1.234863	-0.211182	-0.446289
46966		13.413793	1.681122	-0.555564	-0.497095	-0.476935	-0.182310	-1.232910	-0.210693	-0.438232
46967		14.061400	1.646031	0.162647	-0.619244	0.005018	-0.223966	-1.243164	-0.202148	-0.441162
46968		14.054332	0.541305	1.043016	-0.754295	0.318071	-0.276753	-1.229980	-0.217285	-0.454834
46969		14.074629	-1.095248	2.079252	-0.781445	0.337584	-0.362290	-1.225830	-0.215576	-0.459473
46970		14.016883	-2.332424	2.998389	-0.656030	0.379472	-0.442642	-1.214844	-0.210205	-0.465576
46971		13.551785	-3.067306	3.275300	-0.489083	0.431671	-0.467997	-1.219238	-0.216309	-0.464600
46972		13.033473	-3.138189	3.051005	-0.190928	0.459649	-0.456895	-1.218506	-0.219727	-0.477539
46973		12.076230	-2.164796	3.219650	0.159179	0.468638	-0.426275	-1.210693	-0.218018	-0.471191
46974		11.046522	-0.944361	3.798992	0.351216	0.351827	-0.405070	-1.200684	-0.235107	-0.480225
46975		10.260717	0.287549	4.134085	0.397911	0.209409	-0.381724	-1.200195	-0.230713	-0.468018
46976		9.439539	1.371014	4.198618	0.351083	0.151095	-0.343490	-1.200928	-0.242432	-0.476318
46977		8.331673	2.004300	4.472468	0.259862	0.199108	-0.278044	-1.198975	-0.248779	-0.486816
46978		7.084312	2.092443	4.950577	0.120428	0.304758	-0.217462	-1.196289	-0.249756	-0.483643
46979		5.939598	1.895411	5.367194	-0.043066	0.356029	-0.164650	-1.192383	-0.253906	-0.495605
46980		5.517201	1.812177	5.452293	-0.232618	0.293488	-0.132412	-1.192383	-0.249023	-0.501465
46981		6.168187	1.439405	5.194034	-0.396285	0.208238	-0.151750	-1.187012	-0.247803	-0.497070
46982		7.097901	0.300514	4.738442	-0.540008	0.183136	-0.212094	-1.189941	-0.252197	-0.505127
46983		8.039658	-1.018323	4.039761	-0.552986	0.144008	-0.305612	-1.180176	-0.247559	-0.500977
46984		8.944606	-1.953637	3.475636	-0.531821	0.092521	-0.417825	-1.179199	-0.255859	-0.506836
46985		9.372260	-2.257659	3.013926	-0.398979	0.089209	-0.518008	-1.177490	-0.249756	-0.513672
46986		9.284615	-2.129114	2.745856	-0.213546	0.081872	-0.580345	-1.178467	-0.261719	-0.514648
46987		9.145469	-1.171313	3.010721	0.003414	0.070651	-0.553084	-1.178467	-0.269287	-0.510498
46988		8.725728	-0.311745	3.263757	0.058368	0.028855	-0.459982	-1.172607	-0.276611	-0.511475
46989		8.648226	0.236271	3.333180	0.097469	-0.059634	-0.316017	-1.164795	-0.276367	-0.510742
46990		8.789643	0.469279	3.285889	0.083630	-0.136333	-0.172322	-1.168213	-0.287598	-0.507813
46991		9.256549	0.428681	3.251780	0.069308	-0.208372	-0.046791	-1.176514	-0.292969	-0.507568
46992		9.313128	0.313386	3.146401	0.034028	-0.198221	0.028057	-1.166748	-0.288086	-0.505615
46993		9.155028	0.316473	3.217803	0.074895	-0.195772	0.075988	-1.177246	-0.280518	-0.506104
46994		9.148999	0.346624	3.071924	0.054115	-0.239305	0.096672	-1.176758	-0.285645	-0.499023
46995		9.383220	0.231343	2.827043	0.039545	-0.278428	0.104936	-1.175049	-0.284912	-0.495850
46996		9.479954	0.093455	2.530529	0.023148	-0.294888	0.099493	-1.179199	-0.274414	-0.495605
46997		9.383282	0.084871	2.502335	0.048236	-0.244429	0.096253	-1.177246	-0.285645	-0.497559
46998		9.143180	0.109277	2.422203	0.045663	-0.242289	0.100907	-1.182861	-0.284180	-0.490967
46999		8.842601	0.109586	2.454214	0.094635	-0.207047	0.126974	-1.186035	-0.281250	-0.475830
47000		8.374312	0.326372	2.501842	0.100452	-0.147771	0.152082	-1.180908	-0.279785	-0.479004
47001		8.686175	0.221320	2.698765	0.130110	-0.203264	0.200571	-1.179688	-0.273438	-0.475342
47002		8.764572	0.339701	2.559729	0.116644	-0.276076	0.233334	-1.187500	-0.268555	-0.479492
47003		9.090523	0.264095	2.383626	0.080192	-0.302768	0.231192	-1.184326	-0.276855	-0.475098
47004		9.500866	0.159966	2.272377	0.032910	-0.291982	0.224382	-1.189941	-0.264893	-0.477539
47005		9.523876	0.007040	2.014659	0.009509	-0.205176	0.208764	-1.189453	-0.264160	-0.467041
47006		9.478228	-0.174373	2.060914	0.006867	-0.092051	0.206886	-1.187500	-0.269287	-0.463623
47007		9.297945	-0.334159	2.115825	0.031670	-0.010186	0.210032	-1.190186	-0.261963	-0.471436
47008		8.932159	-0.454369	2.168904	0.042186	0.047800	0.197682	-1.193848	-0.261963	-0.471924
47009		8.676873	-0.472180	2.158191	0.051282	0.062674	0.179499	-1.184570	-0.258057	-0.463379
47010		8.689861	-0.344596	2.059319	0.052259	0.066310	0.148853	-1.184082	-0.257568	-0.473877
47011		8.582214	-0.205298	2.012307	0.051479	0.092193	0.105953	-1.192139	-0.254639	-0.465576
47012		8.490752	-0.130506	1.944204	0.037921	0.073476	0.060073	-1.187500	-0.260254	-0.467529
47013		8.579701	-0.038399	1.792615	0.009863	0.011582	0.011208	-1.191650	-0.255615	-0.479004
47014		8.795724	-0.006485	1.512965	-0.019879	-0.035153	-0.035399	-1.195313	-0.258057	-0.468506
47015		8.969107	-0.093881	1.173933	-0.046000	-0.027700	-0.075664	-1.192871	-0.260254	-0.475830
47016		9.057321	-0.294085	1.066675	-0.046906	0.027169	-0.113788	-1.188477	-0.254395	-0.478027
47017		9.127574	-0.483412	1.095541	-0.044529	0.060134	-0.150346	-1.183350	-0.259766	-0.470703
47018		9.209675	-0.747927	0.964381	-0.064050	0.051242	-0.182960	-1.187256	-0.271729	-0.476074
47019		9.329164	-0.925962	0.846048	-0.046289	0.037172	-0.220374	-1.191895	-0.264648	-0.464844
47020		9.486210	-0.984903	0.728157	-0.005858	0.075069	-0.274043	-1.186035	-0.275879	-0.468994
47021		9.566657	-0.990806	0.909403	0.021099	0.150328	-0.314048	-1.186523	-0.269531	-0.468262
47022		9.582036	-0.898160	1.251357	0.052682	0.229572	-0.346435	-1.191650	-0.274902	-0.484131
47023		9.342653	-0.651640	1.586659	0.068834	0.274455	-0.369607	-1.182861	-0.290283	-0.479492
47024		9.220888	-0.410606	1.949529	0.066780	0.174318	-0.363172	-1.186523	-0.296387	-0.474854
47025		9.185760	-0.272996	1.936269	0.075711	0.053782	-0.341161	-1.182373	-0.299316	-0.482666
47026		9.214754	-0.353273	1.984395	0.068677	-0.016519	-0.319426	-1.183105	-0.302246	-0.485107
47027		9.319710	-0.632978	2.135649	0.090023	-0.039742	-0.288699	-1.180908	-0.309570	-0.478271
47028		9.439323	-0.928831	2.254614	0.150704	-0.102608	-0.239815	-1.191895	-0.304443	-0.481445
47029		9.819896	-1.253134	2.078527	0.221601	-0.175743	-0.187995	-1.183105	-0.316895	-0.474609
47030		10.282310	-1.429112	1.734768	0.302076	-0.204860	-0.147971	-1.185303	-0.315430	-0.474121
47031		10.693194	-1.244360	1.269807	0.381498	-0.215783	-0.103656	-1.181641	-0.318848	-0.470215
47032		11.130466	-1.085421	0.800527	0.438845	-0.257896	-0.045744	-1.195801	-0.322510	-0.462158
47033		11.636424	-1.052754	0.244823	0.466560	-0.331807	0.024742	-1.195801	-0.325684	-0.457764
47034		11.905945	-1.266687	-0.278121	0.448097	-0.401524	0.097237	-1.192871	-0.327148	-0.452393
47035		11.952069	-1.543582	-0.748200	0.434023	-0.465571	0.168195	-1.200195	-0.325195	-0.448730
47036		12.617931	-1.482195	-0.758386	0.475995	-0.429543	0.230907	-1.205322	-0.319580	-0.430176
47037		13.186309	-1.095183	-0.448052	0.570243	-0.082429	0.272220	-1.201904	-0.314697	-0.428467
47038		13.636232	0.138145	-0.194321	0.641395	0.175733	0.325892	-1.203369	-0.320557	-0.440186
47039		13.723340	1.814477	0.869913	0.674981	0.399134	0.431066	-1.194580	-0.315918	-0.432861
47040		12.399798	2.719622	1.759110	0.576112	0.557537	0.480014	-1.201904	-0.314453	-0.440186
47041		11.246422	3.432968	2.615323	0.509294	0.556692	0.451433	-1.203857	-0.313965	-0.445801
47042		10.662075	3.409943	4.170970	0.285344	0.547210	0.425874	-1.200195	-0.305176	-0.452881
47043		10.070873	3.172281	4.922949	0.063343	0.496787	0.405617	-1.200928	-0.296875	-0.457031
47044		9.991345	3.129083	4.788133	-0.125946	0.351699	0.407000	-1.192383	-0.295898	-0.459473
47045		10.226337	2.755639	5.120046	-0.293468	0.379716	0.441694	-1.196777	-0.278564	-0.468262
47046		10.150790	1.763565	5.316388	-0.410695	0.356125	0.515889	-1.192871	-0.281250	-0.471436
47047		9.892637	0.679961	4.596932	-0.410167	0.197874	0.604048	-1.195801	-0.260254	-0.478516
47048		8.726467	-0.453553	4.240818	-0.301451	0.293002	0.622633	-1.187012	-0.251465	-0.480957
47049		7.261129	-1.188892	4.415429	-0.092723	0.389615	0.563706	-1.189453	-0.245117	-0.479736
47050		6.382144	-1.135304	4.923369	0.102789	0.370862	0.454677	-1.191406	-0.235840	-0.493164
47051		6.106051	-0.735757	5.233499	0.225484	0.307819	0.336153	-1.194580	-0.239746	-0.485840
47052		6.702764	-0.007338	5.268625	0.307298	0.206069	0.257725	-1.192871	-0.235352	-0.498047
47053		7.829134	1.158182	5.085399	0.362781	0.104138	0.234658	-1.186035	-0.237061	-0.497803
47054		8.763724	2.252543	4.673143	0.348894	0.063095	0.242616	-1.193848	-0.229004	-0.488037
47055		9.402596	2.718858	4.349107	0.294595	0.047023	0.312780	-1.199951	-0.229980	-0.489014
47056		9.902307	2.692000	4.211535	0.196190	0.009148	0.394748	-1.199707	-0.230713	-0.489014
47057		10.021026	2.101664	3.926066	0.090213	-0.027084	0.474098	-1.193604	-0.224365	-0.495361
47058		9.819728	1.175616	3.818273	-0.005914	-0.046989	0.505539	-1.197021	-0.215576	-0.496338
47059		9.431707	-0.034822	3.703141	-0.069264	-0.097734	0.465246	-1.196289	-0.206787	-0.494385
47060		9.165013	-0.790761	3.613760	-0.091907	-0.200108	0.359840	-1.199951	-0.205811	-0.496094
47061		9.129813	-1.117974	3.414072	-0.100062	-0.300527	0.221200	-1.207275	-0.193848	-0.477051
47062		9.357146	-0.857094	3.209856	-0.049556	-0.400917	0.075034	-1.206787	-0.195801	-0.484863
47063		9.618899	-0.427627	2.790709	-0.017830	-0.353366	-0.052844	-1.208008	-0.192871	-0.474365
47064		9.421638	-0.014115	2.732086	0.025990	-0.203523	-0.131794	-1.205078	-0.205078	-0.474854
47065		9.398781	0.450729	2.832786	0.053200	-0.134769	-0.143914	-1.203125	-0.205078	-0.473877
47066		9.485238	0.826390	2.629828	0.034808	-0.113636	-0.134867	-1.206787	-0.202148	-0.467529
47067		9.369681	1.178044	2.491787	-0.008781	-0.109558	-0.127214	-1.214111	-0.208008	-0.474609
47068		8.935193	0.988257	2.372324	-0.107067	-0.087981	-0.125959	-1.208008	-0.199463	-0.475830
47069		8.415601	0.647905	2.396261	-0.116250	-0.137112	-0.136649	-1.205811	-0.207031	-0.468018
47070		8.688320	0.372465	2.272397	-0.166769	-0.338122	-0.188459	-1.215088	-0.210449	-0.463135
47071		8.699331	-0.133791	1.751858	-0.267669	-0.371312	-0.248818	-1.200684	-0.209961	-0.463379
47072		8.318105	-0.365824	1.641675	-0.223659	-0.283519	-0.301124	-1.204834	-0.207764	-0.450928
47073		8.218957	-0.275449	2.003539	-0.158617	-0.260933	-0.319655	-1.212402	-0.217773	-0.451660
47074		7.995796	-0.103356	2.249124	-0.183847	-0.272948	-0.323500	-1.213379	-0.221191	-0.452393
47075		8.017106	-0.033311	2.244954	-0.203495	-0.294992	-0.307556	-1.216309	-0.224121	-0.453369
47076		8.278730	0.085704	2.111806	-0.212984	-0.288572	-0.289454	-1.216309	-0.225098	-0.445557
47077		8.546781	0.252101	2.102188	-0.219915	-0.240428	-0.255978	-1.214600	-0.230957	-0.449707
47078		8.668160	0.305868	2.023003	-0.237659	-0.181399	-0.228720	-1.212402	-0.225586	-0.448730
47079		8.824777	0.290366	1.936760	-0.237526	-0.150505	-0.191752	-1.223389	-0.230957	-0.446289
47080		9.129842	0.261919	1.704462	-0.242843	-0.131075	-0.143052	-1.217773	-0.226807	-0.438477
47081		9.376095	-0.084129	1.361001	-0.255112	-0.060765	-0.094395	-1.220459	-0.230713	-0.442383
47082		9.384014	-0.364684	1.271214	-0.202257	0.021140	-0.037942	-1.218018	-0.232666	-0.442627
47083		9.196684	-0.619936	1.224656	-0.148217	0.104353	0.020537	-1.219727	-0.233643	-0.436279
47084		9.105741	-0.571151	1.254240	-0.102469	0.127191	0.070851	-1.225098	-0.236084	-0.446289
47085		9.120514	-0.272804	1.182243	-0.080903	0.104969	0.117542	-1.222656	-0.228271	-0.458740
47086		9.215420	0.101679	1.158302	-0.067851	0.128602	0.155582	-1.218994	-0.231201	-0.451660
47087		9.286458	0.448046	1.308701	-0.056098	0.165944	0.184495	-1.218994	-0.234375	-0.441406
47088		9.291931	0.638918	1.314001	-0.069399	0.162435	0.202339	-1.219971	-0.215820	-0.461914
47089		9.583278	0.856687	1.220986	-0.098199	0.120791	0.206157	-1.220215	-0.216309	-0.458984
47090		9.690667	1.054232	1.069283	-0.105652	0.132490	0.208297	-1.214600	-0.216797	-0.456055
47091		9.666885	1.125375	1.295440	-0.106718	0.191939	0.218302	-1.218994	-0.215332	-0.453857
47092		9.522934	0.904529	1.664131	-0.161946	0.229381	0.224884	-1.222412	-0.217285	-0.460693
47093		9.447871	0.634852	2.064069	-0.186603	0.192903	0.228316	-1.220459	-0.211426	-0.467041
47094		9.268947	0.498817	2.180649	-0.195230	0.164811	0.235349	-1.228027	-0.200195	-0.476074
47095		9.287529	0.357769	2.162694	-0.184725	0.119959	0.216225	-1.226074	-0.200195	-0.472900
47096		9.476109	0.761469	2.426779	-0.159441	0.133724	0.187714	-1.222412	-0.198486	-0.465820
47097		9.586197	0.897606	2.687413	-0.170336	0.139656	0.154061	-1.222656	-0.200195	-0.466309
47098		9.903467	0.856865	2.520396	-0.159753	0.071437	0.123576	-1.223389	-0.199951	-0.471680
47099		10.114456	0.640679	2.092035	-0.146379	-0.020313	0.094640	-1.218994	-0.199219	-0.473877
47100		10.435606	0.481408	1.622790	-0.149708	-0.137615	0.062315	-1.217773	-0.193359	-0.465576
47101		11.007575	0.383264	0.913060	-0.216321	-0.258052	0.014931	-1.216064	-0.193848	-0.469238
47102		11.449128	0.353533	0.173490	-0.261696	-0.307507	-0.037180	-1.229004	-0.190918	-0.469238
47103		11.776200	0.653687	-0.143809	-0.286515	-0.278538	-0.081891	-1.224365	-0.202393	-0.462158
47104		11.744521	0.984772	-0.390332	-0.325277	-0.200207	-0.127183	-1.225098	-0.197266	-0.453369
47105		11.639857	1.369982	-0.659194	-0.365447	-0.185166	-0.148085	-1.226318	-0.197754	-0.453125
47106		12.781313	1.799563	-0.000522	-0.332391	-0.018866	-0.166716	-1.226318	-0.198730	-0.465576
47107		12.909451	1.381779	0.685406	-0.475395	0.310540	-0.186473	-1.212891	-0.195557	-0.463623
47108		13.221928	-0.232048	1.419986	-0.522506	0.423878	-0.225208	-1.213867	-0.192627	-0.467285
47109		12.848283	-1.946285	1.992211	-0.520201	0.522028	-0.274487	-1.224365	-0.187988	-0.474365
47110		12.127295	-2.668427	2.746854	-0.414039	0.609383	-0.301432	-1.213867	-0.204590	-0.485840
47111		11.607377	-2.719053	3.716767	-0.195510	0.668810	-0.311775	-1.200928	-0.202393	-0.500488
47112		11.167069	-2.417757	4.637211	0.039288	0.686447	-0.316551	-1.201172	-0.207275	-0.501221
47113		10.648542	-2.522950	4.680395	0.174442	0.516421	-0.320720	-1.189941	-0.212891	-0.503906
47114		10.586101	-2.005058	3.961922	0.390489	0.241091	-0.344769	-1.194092	-0.214844	-0.503418
47115		10.664728	-0.546204	3.322369	0.566328	0.087419	-0.377789	-1.184326	-0.218994	-0.499512
47116		10.022116	1.033947	2.938803	0.552088	0.083522	-0.358992	-1.180664	-0.224854	-0.501953
47117		9.070574	2.005939	2.821106	0.458068	0.144872	-0.298714	-1.189209	-0.237061	-0.510254
47118		7.949147	2.447682	3.520054	0.370761	0.281009	-0.222080	-1.186523	-0.249023	-0.509277
47119		6.704942	2.792701	4.345174	0.210902	0.429084	-0.179688	-1.184814	-0.240967	-0.518799
47120		6.020813	2.613795	5.142648	-0.000227	0.430065	-0.160680	-1.173340	-0.244629	-0.526367
47121		5.936942	1.742472	5.259862	-0.273235	0.297747	-0.199362	-1.176025	-0.243652	-0.520264
47122		6.750753	0.703034	4.679710	-0.434662	0.202660	-0.291875	-1.176514	-0.241943	-0.524902
47123		7.748406	-0.270324	4.307939	-0.459196	0.169411	-0.379005	-1.175293	-0.247803	-0.531006
47124		8.556729	-1.072236	3.781852	-0.411154	0.119295	-0.475249	-1.166504	-0.255615	-0.535645
47125		8.972402	-1.403666	3.591135	-0.289851	0.067539	-0.528993	-1.159912	-0.252686	-0.529053
47126		9.055594	-1.330612	3.383644	-0.139792	0.028286	-0.545612	-1.161377	-0.264404	-0.541504
47127		9.049580	-0.891124	3.206818	-0.053529	-0.016504	-0.509808	-1.169189	-0.270264	-0.525391
47128		9.301051	-0.486987	3.183618	-0.000775	-0.065392	-0.423803	-1.158447	-0.274414	-0.536377
47129		9.438640	-0.284826	3.177515	0.028376	-0.108289	-0.304575	-1.161377	-0.280029	-0.535156
47130		9.769502	-0.314669	3.028123	0.047271	-0.197631	-0.169959	-1.160645	-0.279297	-0.525635
47131		10.117884	-0.344836	2.689381	0.081175	-0.210401	-0.066803	-1.162598	-0.282715	-0.533203
47132		10.054030	-0.207639	2.866310	0.124313	-0.164140	0.002368	-1.165527	-0.276123	-0.526123
47133		9.770546	-0.131550	2.951952	0.095330	-0.164625	0.024126	-1.157471	-0.279785	-0.526611
47134		9.594899	-0.087431	2.976282	0.077165	-0.195784	0.010875	-1.163330	-0.280518	-0.528564
47135		9.130414	-0.017297	2.917681	0.073487	-0.207324	0.020859	-1.163574	-0.282471	-0.519531
47136		9.181100	0.012351	2.837221	0.094000	-0.310569	0.028575	-1.164795	-0.291016	-0.515137
47137		9.116491	-0.024567	2.525878	0.085842	-0.297555	0.030974	-1.164063	-0.284180	-0.517822
47138		8.827040	-0.053172	2.674747	0.101127	-0.192478	0.053072	-1.162354	-0.288330	-0.509033
47139		8.571564	-0.084769	2.950559	0.129688	-0.155756	0.095553	-1.168213	-0.295654	-0.510986
47140		8.432914	-0.141890	3.063135	0.123290	-0.183127	0.132358	-1.164551	-0.276855	-0.517822
47141		8.555998	-0.259578	2.985036	0.080026	-0.222323	0.161159	-1.167969	-0.280273	-0.498047
47142		8.853299	-0.286681	2.745025	0.068041	-0.301741	0.167775	-1.165039	-0.280273	-0.496338
47143		9.298816	-0.268683	2.724749	0.073831	-0.315527	0.178902	-1.171143	-0.280518	-0.492920
47144		9.281281	-0.223547	2.222851	0.093569	-0.319405	0.204913	-1.182861	-0.268311	-0.491943
47145		8.988498	-0.157193	2.196087	0.168643	-0.231430	0.221976	-1.179443	-0.279053	-0.491699
47146		8.701937	0.149461	2.435085	0.197573	-0.110791	0.222987	-1.173584	-0.274902	-0.484375
47147		8.485769	0.403889	2.574557	0.183155	-0.025541	0.222257	-1.179199	-0.272461	-0.486816
47148		8.329341	0.441021	2.707418	0.153644	-0.015982	0.223919	-1.178467	-0.270020	-0.478760
47149		8.280485	0.264941	2.764280	0.091204	-0.054740	0.214122	-1.181396	-0.266846	-0.496338
47150		8.523972	-0.082502	2.488985	0.040413	-0.103460	0.185706	-1.176025	-0.269043	-0.482666
47151		8.729505	-0.415880	2.314745	0.042210	-0.076708	0.147925	-1.185059	-0.265381	-0.489014
47152		8.885162	-0.540815	2.205081	0.063893	-0.034733	0.104705	-1.177490	-0.267822	-0.493164
47153		8.931379	-0.573169	2.154637	0.091771	0.016281	0.067035	-1.188477	-0.270752	-0.473633
47154		8.840481	-0.493939	2.161141	0.116094	0.031757	0.052880	-1.178467	-0.273926	-0.480469
47155		8.785569	-0.394346	2.131182	0.124116	0.019004	0.048924	-1.184326	-0.264893	-0.480225
47156		8.687350	-0.448758	2.058672	0.131672	0.017725	0.051448	-1.183594	-0.267090	-0.488525
47157		8.685310	-0.544791	2.024571	0.141775	-0.020115	0.048540	-1.183838	-0.264648	-0.474121
47158		8.999919	-0.655284	1.750950	0.116914	-0.072175	0.036430	-1.187500	-0.263428	-0.475342
47159		9.417609	-0.718455	1.306230	0.144849	-0.076502	0.010241	-1.194092	-0.262207	-0.479980
47160		9.791774	-0.643755	1.167727	0.170437	-0.035405	-0.017014	-1.184082	-0.267334	-0.488037
47161		9.983535	-0.592522	0.890307	0.171133	0.012122	-0.059664	-1.186279	-0.265137	-0.473633
47162		10.088712	-0.686231	0.700772	0.164673	0.047591	-0.089645	-1.190430	-0.276611	-0.474854
47163		10.255533	-0.919021	0.698287	0.176310	0.087524	-0.117758	-1.189941	-0.270508	-0.474854
47164		10.291505	-1.061039	0.748635	0.220074	0.160936	-0.160905	-1.187500	-0.275879	-0.475830
47165		10.206960	-1.156825	0.840258	0.291969	0.233821	-0.213988	-1.178955	-0.283691	-0.485107
47166		10.075013	-0.832282	1.283899	0.360821	0.318884	-0.265789	-1.190186	-0.281738	-0.483398
47167		9.702027	-0.459137	1.943010	0.348894	0.356720	-0.304479	-1.187500	-0.295410	-0.484863
47168		9.142791	-0.335645	2.399348	0.281668	0.224964	-0.304948	-1.180908	-0.294678	-0.480469
47169		9.095085	-0.595510	2.300770	0.237867	0.058688	-0.290924	-1.181396	-0.299561	-0.488281
47170		9.212782	-0.977683	2.013570	0.293843	-0.003186	-0.278606	-1.171875	-0.308105	-0.478271
47171		9.203174	-1.069940	2.184234	0.358148	-0.023427	-0.276162	-1.182617	-0.315186	-0.484131
47172		9.424623	-1.018465	2.225936	0.373861	-0.099707	-0.256480	-1.181396	-0.311768	-0.472900
47173		9.834451	-0.878211	1.677116	0.361150	-0.184607	-0.218852	-1.183838	-0.323486	-0.477051
47174		10.251855	-0.743490	1.013503	0.335362	-0.283655	-0.156887	-1.189209	-0.321777	-0.473877
47175		10.737251	-0.841848	0.472826	0.325511	-0.367745	-0.065181	-1.184814	-0.330811	-0.467529
47176		11.135581	-1.160188	0.046023	0.343789	-0.416743	0.034099	-1.188965	-0.325928	-0.455078
47177		11.973460	-1.484642	-0.154196	0.399210	-0.423133	0.127418	-1.191650	-0.330322	-0.455322
47178		13.081631	-1.421600	0.118645	0.545092	-0.165054	0.200287	-1.188965	-0.329346	-0.450928
47179		13.408993	-1.027528	0.314331	0.590537	0.123021	0.308397	-1.201416	-0.327393	-0.449463
47180		13.674252	0.414679	1.350514	0.669173	0.252211	0.454784	-1.189697	-0.323242	-0.448730
47181		12.684610	2.076781	2.541078	0.654175	0.333023	0.538675	-1.206543	-0.323975	-0.450684
47182		11.374086	3.448257	3.213560	0.562408	0.274835	0.520796	-1.196045	-0.320068	-0.451416
47183		11.052297	4.038546	4.144839	0.394922	0.327942	0.528019	-1.202148	-0.317627	-0.456543
47184		10.066493	3.683563	4.719392	0.093389	0.341433	0.510015	-1.201660	-0.302246	-0.452881
47185		10.088632	2.349869	4.677188	-0.141612	0.158492	0.496780	-1.196045	-0.294189	-0.463867
47186		10.894854	1.085558	5.250760	-0.164171	0.151044	0.504784	-1.198242	-0.294434	-0.459717
47187		11.297450	0.182763	5.431736	-0.150676	0.101508	0.555747	-1.204834	-0.272217	-0.467285
47188		11.291359	-0.200237	4.964988	-0.004511	0.074291	0.622257	-1.201172	-0.275635	-0.462646
47189		9.963985	-0.242357	4.795745	0.127392	0.261665	0.653103	-1.203857	-0.268066	-0.464111
47190		8.377425	-0.337917	4.642028	0.240028	0.371397	0.622255	-1.201416	-0.258789	-0.478027
47191		7.334717	-0.073772	4.740727	0.375350	0.396407	0.581116	-1.206543	-0.249268	-0.475342
47192		6.796749	0.432967	4.809009	0.472006	0.369877	0.553297	-1.198486	-0.242920	-0.479248
47193		7.334602	0.952710	4.793302	0.536278	0.269253	0.537615	-1.205811	-0.238281	-0.487793
47194		8.149084	2.052539	4.569575	0.563507	0.196629	0.525245	-1.201416	-0.236328	-0.493164
47195		9.091705	2.807412	4.190627	0.501032	0.143534	0.518716	-1.196045	-0.235352	-0.487549
47196		9.702860	3.287656	3.817138	0.415189	0.091198	0.520925	-1.197266	-0.219238	-0.478027
47197		9.747693	3.187702	3.600745	0.280479	0.071497	0.541346	-1.203857	-0.227051	-0.481689
47198		9.443964	2.393030	3.599508	0.137499	0.047252	0.575505	-1.197266	-0.210449	-0.490479
47199		8.911515	1.545789	3.721927	0.088876	-0.030986	0.567959	-1.207031	-0.208984	-0.480469
47200		8.378656	0.657864	3.833626	0.032971	-0.085009	0.511598	-1.212891	-0.202881	-0.482178
47201		8.089146	-0.292245	3.986555	-0.015571	-0.153765	0.397717	-1.210449	-0.202881	-0.484619
47202		8.305640	-0.911759	3.947769	-0.051000	-0.293129	0.245774	-1.206787	-0.185547	-0.479492
47203		8.629872	-0.994611	3.486232	-0.044651	-0.394168	0.090267	-1.214355	-0.185791	-0.481445
47204		8.913053	-0.946485	3.185341	-0.012393	-0.388712	-0.040734	-1.214111	-0.191162	-0.464355
47205		8.889591	-0.640997	2.964894	0.024177	-0.345181	-0.107107	-1.212891	-0.190186	-0.460938
47206		8.818013	-0.345891	2.809021	0.072094	-0.308242	-0.127208	-1.217285	-0.192871	-0.468506
47207		8.655112	0.217211	2.628365	0.095619	-0.278122	-0.119277	-1.225586	-0.203125	-0.459717
47208		8.595403	0.860764	2.654560	0.065061	-0.285773	-0.120165	-1.217041	-0.201172	-0.460693
47209		8.647393	1.004047	2.458697	-0.051795	-0.353382	-0.144459	-1.223877	-0.196777	-0.459473
47210		8.495909	1.134322	1.856066	-0.154046	-0.389409	-0.183728	-1.226563	-0.206055	-0.447510
47211		8.427275	1.126408	2.060553	-0.209242	-0.335565	-0.227841	-1.232178	-0.201904	-0.446289
47212		8.389176	1.074012	2.266929	-0.303467	-0.365144	-0.282099	-1.234863	-0.208008	-0.441895
47213		8.375466	0.756674	1.982364	-0.417703	-0.387940	-0.320022	-1.228516	-0.209473	-0.435059
47214		8.537337	0.657407	1.894489	-0.436876	-0.414273	-0.328561	-1.224609	-0.218506	-0.439941
47215		8.660741	0.211926	1.614026	-0.504367	-0.383915	-0.326301	-1.223145	-0.212891	-0.426025
47216		8.579457	-0.242072	1.505710	-0.479564	-0.317788	-0.333370	-1.227783	-0.212402	-0.422852
47217		8.509113	-0.399247	1.956385	-0.446753	-0.406336	-0.309950	-1.224854	-0.220459	-0.431641
47218		8.762619	-0.567117	1.754674	-0.528842	-0.555188	-0.281348	-1.231934	-0.233398	-0.409424
47219		9.071019	-0.975631	0.903278	-0.461449	-0.524940	-0.245740	-1.239014	-0.219727	-0.412109
47220		9.099424	-1.038065	0.898952	-0.278181	-0.330685	-0.212136	-1.246582	-0.221680	-0.403320
47221		9.070748	-0.965648	1.420282	-0.160207	-0.251883	-0.169041	-1.236816	-0.224609	-0.409668
47222		9.155785	-0.965634	1.385597	-0.119436	-0.298788	-0.114692	-1.244629	-0.222900	-0.398438
47223		9.371687	-0.907525	1.036525	-0.060363	-0.257130	-0.065050	-1.246826	-0.227539	-0.395752
47224		9.451282	-0.746530	1.049698	0.035267	-0.155965	-0.027223	-1.245117	-0.222412	-0.392578
47225		9.297061	-0.488538	1.141251	0.099895	-0.105027	0.011680	-1.242676	-0.228760	-0.400879
47226		9.433154	-0.132177	0.969723	0.131615	-0.109672	0.057070	-1.245850	-0.231445	-0.397217
47227		9.534427	0.206263	0.837178	0.143366	-0.097387	0.092504	-1.250977	-0.229248	-0.398682
47228		9.544362	0.375454	0.824584	0.143302	-0.045339	0.140183	-1.246826	-0.226807	-0.396240
47229		9.575345	0.348052	0.902052	0.144137	-0.035066	0.201878	-1.245605	-0.222900	-0.393555
47230		9.874338	0.275802	0.751433	0.128018	-0.050543	0.263215	-1.250977	-0.223389	-0.386719
47231		10.087058	0.337872	0.590263	0.136597	0.015978	0.297905	-1.251953	-0.216553	-0.392334
47232		10.096650	0.153920	0.617431	0.101247	0.182791	0.327041	-1.258301	-0.217529	-0.398926
47233		9.803406	0.013055	0.726548	0.062808	0.353777	0.331257	-1.249756	-0.206787	-0.391357
47234		9.437572	-0.001630	1.063741	0.142191	0.432545	0.304949	-1.257568	-0.213867	-0.401367
47235		9.276937	0.401851	1.626418	0.273255	0.389683	0.267944	-1.256836	-0.205322	-0.404053
47236		9.355884	0.485629	1.962596	0.243121	0.319579	0.242563	-1.256592	-0.209229	-0.404541
47237		9.277431	0.292308	1.672156	0.178587	0.288794	0.238362	-1.259033	-0.206299	-0.415771
47238		9.393347	0.636912	1.450089	0.198384	0.295842	0.226241	-1.245850	-0.206787	-0.411621
47239		9.701520	1.116763	1.854743	0.188157	0.328920	0.186266	-1.247559	-0.203613	-0.415283
47240		9.899150	1.606802	2.283508	0.184509	0.319077	0.159928	-1.245605	-0.195313	-0.424805
47241		10.053782	1.609360	2.201884	0.091851	0.248877	0.149158	-1.251221	-0.197510	-0.427734
47242		10.314869	1.189374	1.613731	0.037650	0.188488	0.137029	-1.242920	-0.202148	-0.422119
47243		10.828125	1.200339	1.444513	0.042649	0.122276	0.103360	-1.248535	-0.198486	-0.433105
47244		11.393469	1.137300	1.034655	-0.025807	0.057793	0.062372	-1.246826	-0.194824	-0.431152
47245		11.439958	0.833828	0.364320	-0.078614	-0.010596	0.021695	-1.239014	-0.199463	-0.423828
47246		12.432512	0.913520	0.607890	0.042823	-0.113057	-0.043628	-1.244629	-0.195313	-0.427490
47247		13.073747	1.249125	1.194122	-0.044440	0.030413	-0.143000	-1.247803	-0.201904	-0.428955
47248		13.773860	0.457313	0.675808	-0.189342	-0.010879	-0.253268	-1.244873	-0.207520	-0.421631
47249		14.098442	-0.200024	0.623436	-0.225901	0.111159	-0.344192	-1.242188	-0.207764	-0.431152
47250		13.276886	-0.906364	0.775913	-0.218138	0.457764	-0.406054	-1.239014	-0.211670	-0.439697
47251		12.814752	-0.867860	1.670147	-0.102841	0.622130	-0.460998	-1.238037	-0.218262	-0.440674
47252		12.442545	-0.813002	2.975111	-0.020437	0.702695	-0.484062	-1.232422	-0.219727	-0.451416
47253		11.584544	-1.067833	3.509859	-0.032746	0.599693	-0.467211	-1.225098	-0.229004	-0.465088
47254		11.303918	-1.100164	3.387065	0.037613	0.411995	-0.425989	-1.221680	-0.229492	-0.464111
47255		11.294510	-0.924852	3.011680	0.122881	0.301984	-0.389750	-1.218994	-0.239014	-0.463623
47256		10.987821	-0.310948	2.689111	0.211709	0.259861	-0.344214	-1.221680	-0.239258	-0.469482
47257		10.225820	0.185479	3.112449	0.317684	0.322663	-0.275734	-1.212891	-0.242676	-0.475342
47258		9.468152	0.492928	3.860646	0.333304	0.326450	-0.191949	-1.202881	-0.245361	-0.476563
47259		8.440942	0.382992	4.080746	0.168658	0.293627	-0.152078	-1.192627	-0.262939	-0.481201
47260		7.436533	0.256274	4.379421	0.172623	0.322330	-0.170467	-1.199707	-0.251709	-0.491455
47261		6.623499	0.559777	4.861929	0.123306	0.341722	-0.229813	-1.200928	-0.257080	-0.483398
47262		6.462708	0.681272	5.173808	-0.007444	0.297743	-0.295046	-1.199707	-0.267578	-0.487061
47263		6.924978	0.633281	4.910357	-0.096385	0.129176	-0.346800	-1.189453	-0.259277	-0.489258
47264		7.526086	-0.072659	4.084289	-0.202018	0.084790	-0.439337	-1.188232	-0.272461	-0.493408
47265		8.130416	-0.183656	3.842411	-0.063103	0.158569	-0.484932	-1.192139	-0.280029	-0.490234
47266		8.719793	-0.536311	3.884406	-0.094967	0.183592	-0.494230	-1.188721	-0.283691	-0.502197
47267		8.691383	-1.169895	3.518482	-0.051398	0.173675	-0.480069	-1.187744	-0.285889	-0.500244
47268		8.794733	-1.215458	3.571336	0.080377	0.109891	-0.442083	-1.183105	-0.295654	-0.501709
47269		8.823064	-0.908206	3.680753	0.130467	0.072190	-0.377979	-1.182129	-0.299561	-0.508057
47270		9.029426	-0.567289	3.643237	0.146229	0.005668	-0.307040	-1.182129	-0.300781	-0.498047
47271		9.155523	-0.280603	3.482349	0.160496	-0.032497	-0.224076	-1.168213	-0.308594	-0.502686
47272		9.305928	-0.228773	3.351318	0.159300	-0.041665	-0.148655	-1.180420	-0.307861	-0.497559
47273		9.178798	-0.148174	3.240419	0.204926	-0.052663	-0.071612	-1.171875	-0.307129	-0.494141
47274		8.900802	-0.038583	3.163506	0.232183	-0.108025	0.010395	-1.166504	-0.315186	-0.504150
47275		8.425324	0.065412	3.121465	0.288407	-0.156223	0.065250	-1.173584	-0.321289	-0.490234
47276		8.364213	0.517855	3.369729	0.307762	-0.241076	0.091571	-1.182129	-0.317139	-0.488281
47277		8.235847	0.837699	3.216944	0.204911	-0.263453	0.075197	-1.181641	-0.311768	-0.486572
47278		8.354879	1.052496	2.934863	0.146429	-0.298319	0.071487	-1.176025	-0.314209	-0.484619
47279		8.417185	1.183120	2.772020	0.104543	-0.292625	0.085315	-1.178955	-0.316650	-0.473877
47280		8.432433	0.934686	2.694790	0.064473	-0.287325	0.088548	-1.181641	-0.313965	-0.477539
47281		8.638648	0.488664	2.686040	0.076946	-0.320551	0.107737	-1.183350	-0.311523	-0.470215
47282		8.881791	0.344058	2.726129	0.086177	-0.335319	0.126510	-1.191895	-0.311279	-0.461914
47283		8.882060	0.080857	2.690876	0.138969	-0.325569	0.160650	-1.188965	-0.313232	-0.466309
47284		9.068080	0.203060	2.690849	0.206213	-0.351043	0.203102	-1.192627	-0.308838	-0.459961
47285		9.370914	0.257103	2.605659	0.193687	-0.338719	0.245742	-1.195557	-0.302979	-0.453125
47286		9.328128	0.103588	2.559512	0.184224	-0.270586	0.276662	-1.195557	-0.306396	-0.447998
47287		9.400342	0.037693	2.753222	0.205067	-0.243235	0.307022	-1.202637	-0.307373	-0.454102
47288		9.777710	-0.233127	2.500485	0.112004	-0.310879	0.313477	-1.196045	-0.298828	-0.439209
47289		9.855785	-0.376362	1.978074	0.106249	-0.271003	0.297291	-1.206543	-0.305908	-0.439453
47290		10.048340	-0.294164	1.797691	0.118722	-0.214443	0.285223	-1.200684	-0.292725	-0.437256
47291		10.100063	-0.298292	1.695736	0.122420	-0.130037	0.264852	-1.206787	-0.290527	-0.439697
47292		10.011667	-0.400023	1.595293	0.128861	-0.038311	0.233026	-1.201660	-0.282227	-0.438477
47293		9.908373	-0.506534	1.549827	0.139785	0.039132	0.189757	-1.199707	-0.288330	-0.434326
47294		9.537798	-0.529114	1.503736	0.158875	0.143375	0.129635	-1.208984	-0.287354	-0.445557
47295		9.152551	-0.497077	1.652630	0.231816	0.248484	0.072764	-1.212158	-0.288086	-0.441895
47296		8.832073	-0.420496	1.987596	0.234351	0.283511	0.026199	-1.203369	-0.284912	-0.436523
47297		8.730415	-0.542738	1.882842	0.182396	0.245116	-0.011013	-1.200439	-0.290039	-0.449219
47298		9.042213	-0.700793	1.476778	0.173390	0.209077	-0.035361	-1.199951	-0.283691	-0.448242
47299		9.342883	-0.828741	1.020254	0.167592	0.206457	-0.067524	-1.199219	-0.293457	-0.452393
47300		9.421028	-0.930680	0.455115	0.244779	0.309848	-0.119422	-1.204102	-0.291992	-0.452637
47301		9.139963	-0.671055	0.528007	0.338655	0.443713	-0.185215	-1.202881	-0.297363	-0.460449
47302		8.931947	-0.596147	0.854854	0.361179	0.488286	-0.234559	-1.189697	-0.304443	-0.459473
47303		8.887343	-0.557759	0.940442	0.412002	0.464266	-0.268777	-1.189453	-0.310303	-0.468750
47304		8.921502	-0.417165	1.432194	0.468080	0.520588	-0.310544	-1.182373	-0.310547	-0.471191
47305		8.158974	0.267775	2.512424	0.461973	0.577810	-0.353139	-1.180176	-0.316406	-0.476074
47306		7.266938	0.873063	3.937915	0.282454	0.370876	-0.359010	-1.178955	-0.321289	-0.484131
47307		7.076191	0.601675	3.866843	0.175926	-0.002756	-0.314743	-1.180176	-0.335938	-0.473633
47308		7.276298	0.408127	3.707363	0.160615	-0.186601	-0.258711	-1.183105	-0.335449	-0.478271
47309		7.298065	0.461998	3.931322	0.160324	-0.317761	-0.199961	-1.184326	-0.341064	-0.472900
47310		7.715830	0.807666	3.404985	0.088543	-0.561815	-0.111611	-1.184570	-0.330811	-0.456055
47311		8.958931	0.325454	2.182985	-0.060069	-0.813743	-0.012747	-1.191895	-0.334473	-0.451172
47312		10.349658	-1.159862	0.657737	-0.106203	-1.042109	0.074328	-1.197754	-0.337402	-0.432861
47313		11.394089	-2.586717	-0.458152	-0.084714	-1.176679	0.138483	-1.200928	-0.340820	-0.422363
47314		12.074748	-3.605847	-1.429631	0.009668	-1.188577	0.166363	-1.211426	-0.337402	-0.400879
47315		12.863350	-3.941546	-2.032878	0.231324	-1.081698	0.169482	-1.222656	-0.332031	-0.391113
47316		14.110684	-3.533459	-1.705200	0.659174	-0.607568	0.171149	-1.220215	-0.334229	-0.389404
47317		14.083046	-1.904595	-0.853142	0.935123	0.015001	0.188354	-1.216797	-0.341797	-0.381836
47318		13.486151	0.234374	0.797680	1.057508	0.389970	0.229055	-1.222900	-0.339111	-0.384277
47319		12.490833	2.578099	2.452908	1.034261	0.520206	0.230219	-1.219238	-0.341309	-0.392578
47320		11.443767	4.551148	3.568997	0.725307	0.385690	0.200879	-1.220459	-0.335205	-0.390381
47321		10.859827	5.308501	4.515150	0.321333	0.168828	0.186583	-1.217285	-0.338623	-0.392334
47322		9.939640	4.890310	4.581151	-0.165381	-0.060597	0.185487	-1.213867	-0.338135	-0.385742
47323		9.821134	3.173462	3.986156	-0.476701	-0.270887	0.188878	-1.222412	-0.326660	-0.391602
47324		9.983132	1.519936	3.960488	-0.560574	-0.344653	0.192873	-1.221680	-0.330566	-0.385498
47325		10.456513	-0.043570	4.104656	-0.555038	-0.410321	0.227641	-1.224365	-0.320313	-0.382813
47326		11.043888	-1.137342	3.803664	-0.370032	-0.437132	0.283137	-1.222168	-0.314941	-0.370605
47327		10.776706	-1.789111	3.621423	-0.122801	-0.212578	0.318372	-1.230469	-0.309082	-0.377930
47328		9.639765	-1.849925	4.035283	0.182436	0.119817	0.318403	-1.240967	-0.300293	-0.377441
47329		8.731689	-1.501712	4.786913	0.404571	0.303592	0.338931	-1.229004	-0.297607	-0.375488
47330		8.315292	-0.475738	5.058008	0.596068	0.281658	0.410795	-1.234375	-0.294678	-0.377197
47331		8.052677	0.530987	4.894101	0.695844	0.282645	0.507223	-1.224609	-0.288818	-0.372314
47332		8.042358	1.625238	4.633483	0.782231	0.253602	0.603838	-1.235596	-0.290771	-0.388428
47333		8.043740	2.552895	4.540778	0.773515	0.206308	0.680997	-1.230225	-0.282471	-0.383545
47334		8.330034	3.043812	4.317169	0.687635	0.087958	0.747348	-1.240967	-0.273926	-0.385742
47335		8.670438	2.913976	3.846458	0.559303	-0.081630	0.796292	-1.237793	-0.268555	-0.376709
47336		9.073116	2.406071	3.311111	0.457487	-0.209538	0.808723	-1.245605	-0.261719	-0.375244
47337		9.266743	1.714264	2.835412	0.392435	-0.273284	0.746074	-1.249268	-0.249268	-0.373779
47338		9.502702	1.122196	2.683019	0.346461	-0.308688	0.618923	-1.249268	-0.245605	-0.367920
47339		9.507857	0.908944	2.463080	0.269447	-0.325467	0.460491	-1.247559	-0.238525	-0.365967
47340		9.587284	0.813965	2.291573	0.170206	-0.371003	0.280575	-1.256348	-0.234863	-0.354492
47341		9.862349	0.850606	1.993936	0.048077	-0.430367	0.125606	-1.249023	-0.239746	-0.359131
47342		10.191815	1.219903	1.844740	-0.061151	-0.420263	0.010371	-1.253418	-0.232422	-0.352783
47343		10.178229	1.245504	1.575175	-0.186473	-0.374593	-0.052267	-1.257080	-0.236816	-0.338379
47344		10.087680	1.241822	1.419324	-0.277374	-0.309094	-0.090164	-1.251953	-0.244141	-0.343994
47345		9.979359	1.060915	1.612334	-0.346658	-0.233404	-0.120464	-1.258789	-0.238281	-0.349121
47346		9.689026	0.688771	1.909655	-0.419462	-0.186678	-0.174536	-1.258301	-0.236328	-0.342285
47347		9.601598	1.007158	2.038820	-0.424469	-0.214543	-0.251112	-1.259277	-0.235107	-0.335205
47348		9.547084	1.317653	1.925810	-0.547271	-0.232484	-0.338261	-1.260498	-0.238037	-0.342041
47349		9.480258	1.420199	1.626702	-0.672748	-0.205797	-0.423070	-1.255615	-0.237549	-0.344482
47350		9.211068	1.152767	1.060679	-0.753045	-0.143127	-0.490753	-1.263672	-0.250977	-0.334229
47351		8.282948	1.162501	0.925832	-0.687649	0.009575	-0.518596	-1.265381	-0.253174	-0.333740
47352		7.569343	1.050176	1.114219	-0.632564	0.064975	-0.504342	-1.261963	-0.255371	-0.343994
47353		7.143552	0.810920	1.002508	-0.625448	0.025245	-0.452919	-1.255615	-0.269531	-0.352295
47354		6.864265	0.152722	0.697755	-0.619505	-0.021145	-0.360430	-1.260986	-0.257324	-0.340088
47355		6.894602	-0.801083	0.519617	-0.487059	-0.068874	-0.241179	-1.251221	-0.263184	-0.343750
47356		7.312714	-1.568820	0.740254	-0.338912	-0.139567	-0.110533	-1.250000	-0.266846	-0.343994
47357		8.127699	-2.245469	0.724379	-0.202506	-0.213565	0.004555	-1.254395	-0.264160	-0.343262
47358		9.138680	-2.321057	0.841134	-0.033518	-0.289555	0.106071	-1.254883	-0.272949	-0.342773
47359		10.304614	-1.760277	0.604822	0.090725	-0.387052	0.179607	-1.266846	-0.269043	-0.336426
47360		11.606894	-0.940866	0.062667	0.177766	-0.417392	0.189107	-1.258545	-0.264893	-0.325684
47361		12.222664	-0.295790	-0.143679	0.205179	-0.229157	0.155307	-1.263916	-0.263916	-0.320801
47362		11.867424	0.317302	-0.231494	0.247170	0.088540	0.070765	-1.268311	-0.260010	-0.322021
47363		11.160881	1.033732	0.451869	0.249039	0.386683	-0.044050	-1.268555	-0.266357	-0.325928
47364		10.203943	1.579769	1.204791	0.094295	0.513180	-0.150534	-1.265381	-0.271973	-0.341064
47365		9.240340	1.825873	1.446167	-0.074502	0.504566	-0.220670	-1.255859	-0.273682	-0.332764
47366		8.476265	2.038532	1.795712	-0.207317	0.433747	-0.233049	-1.247314	-0.269287	-0.351318
47367		8.100296	1.978209	2.119018	-0.375141	0.316279	-0.222804	-1.254639	-0.277100	-0.355469
47368		8.088944	1.665794	2.108473	-0.565905	0.143242	-0.183074	-1.251709	-0.279297	-0.353271
47369		8.479927	0.995597	1.678630	-0.744635	0.001761	-0.145586	-1.245850	-0.274414	-0.354980
47370		8.815248	0.325591	1.169520	-0.803981	-0.006887	-0.110160	-1.252930	-0.275879	-0.356934
47371		9.151126	-0.254084	1.019294	-0.770703	0.068140	-0.083359	-1.256836	-0.273193	-0.361572
47372		9.351119	-0.317125	0.964142	-0.706139	0.153432	-0.065694	-1.259033	-0.267578	-0.366455
47373		9.567061	-0.210579	0.971372	-0.664226	0.207804	-0.047844	-1.258301	-0.268799	-0.368164
47374		9.837724	-0.107252	0.870220	-0.614083	0.225355	-0.026717	-1.246826	-0.264404	-0.378662
47375		10.175566	-0.091516	0.750578	-0.601728	0.265199	0.013155	-1.249023	-0.269531	-0.390869
47376		10.398995	-0.077334	0.687010	-0.559114	0.334634	0.054611	-1.252441	-0.264648	-0.386719
47377		10.495625	0.000343	1.072994	-0.466541	0.406683	0.102916	-1.256104	-0.263672	-0.389648
47378		10.345763	0.115238	1.591127	-0.405879	0.433687	0.145339	-1.246826	-0.256592	-0.400146
47379		10.064890	0.049842	1.810190	-0.367352	0.373571	0.174679	-1.245605	-0.254150	-0.396484
47380		9.985829	0.110289	1.710515	-0.366905	0.256718	0.167776	-1.244385	-0.251953	-0.413574
47381		9.942228	0.277377	1.449659	-0.385871	0.164312	0.132325	-1.240479	-0.246582	-0.409424
47382		9.863264	0.358613	1.256047	-0.404321	0.089539	0.073546	-1.243408	-0.252197	-0.409912
47383		9.820869	0.394841	0.951242	-0.411346	0.012774	0.011339	-1.240723	-0.254395	-0.410400
47384		10.016057	0.379165	0.455716	-0.430855	-0.118528	-0.037677	-1.241455	-0.248779	-0.406250
47385		10.424816	0.444835	-0.290620	-0.378786	-0.254168	-0.076052	-1.242920	-0.232910	-0.413086
47386		11.075011	0.643340	-0.697555	-0.304061	-0.287626	-0.098665	-1.244141	-0.248291	-0.404785
47387		12.562242	0.551918	-0.458659	-0.280826	-0.197135	-0.105249	-1.242188	-0.249023	-0.400146
47388		13.779441	0.437732	0.688253	-0.232459	0.250809	-0.137587	-1.244385	-0.244873	-0.406494
47389		13.612317	-1.245288	1.532736	-0.361657	0.595513	-0.188297	-1.240479	-0.250244	-0.412109
47390		13.140206	-3.136655	1.658799	-0.253165	0.556291	-0.250466	-1.241455	-0.257080	-0.424805
47391		13.226684	-3.438806	1.720430	0.040619	0.480102	-0.319717	-1.229492	-0.254639	-0.434814
47392		13.132942	-2.986764	1.971555	0.300886	0.633647	-0.344281	-1.228027	-0.260498	-0.437744
47393		12.081073	-2.027115	2.638400	0.659901	0.838708	-0.327031	-1.224121	-0.267578	-0.440674
47394		11.125139	-0.574784	3.482824	0.886734	0.713419	-0.271871	-1.219971	-0.275635	-0.452881
47395		11.099553	0.918919	3.354104	0.883059	0.287329	-0.231110	-1.216064	-0.284180	-0.451660
47396		11.850553	2.468331	2.839889	0.860953	0.106324	-0.234214	-1.213623	-0.282471	-0.450684
47397		11.441053	3.502742	3.185667	0.781601	0.423255	-0.242521	-1.210205	-0.290283	-0.450195
47398		9.357119	3.344484	4.181389	0.684613	0.633976	-0.187630	-1.206299	-0.295410	-0.460449
47399		7.419167	3.052891	5.217545	0.498970	0.528902	-0.141740	-1.201416	-0.302490	-0.466797
47400		6.393595	2.570809	5.245164	0.216192	0.403864	-0.167460	-1.199951	-0.302979	-0.473633
47401		6.608669	2.269793	5.387545	0.009274	0.310210	-0.244099	-1.193359	-0.307617	-0.472168
47402		6.641805	1.597772	5.170703	-0.233858	0.301842	-0.361014	-1.188721	-0.314697	-0.487549
47403		7.185040	1.393033	5.025590	-0.344507	0.289824	-0.486307	-1.184814	-0.323486	-0.480469
47404		7.643697	1.131356	5.077662	-0.417818	0.307455	-0.608013	-1.183350	-0.325928	-0.487305
47405		7.974814	0.411594	4.831937	-0.506865	0.208751	-0.675096	-1.179443	-0.329346	-0.492676
47406		8.655133	-0.012240	4.109519	-0.518771	0.001605	-0.702861	-1.173340	-0.323486	-0.487305
47407		9.280348	-0.204562	3.524309	-0.563861	-0.123514	-0.689163	-1.169678	-0.337891	-0.496826
47408		9.046677	-0.294181	3.008024	-0.522452	-0.142049	-0.638936	-1.171631	-0.344971	-0.492920
47409		9.185183	0.420928	3.087644	-0.440904	-0.192005	-0.528672	-1.169434	-0.342773	-0.491699
47410		9.202814	0.558350	3.051837	-0.500698	-0.156326	-0.410463	-1.168457	-0.353271	-0.487549
47411		9.136949	0.789586	3.334590	-0.493195	-0.153213	-0.290300	-1.171631	-0.353027	-0.486328
47412		9.050002	0.916626	3.508390	-0.572417	-0.220180	-0.176161	-1.162842	-0.348877	-0.487061
47413		8.904764	0.954619	3.162593	-0.627732	-0.324552	-0.115381	-1.171631	-0.343262	-0.495605
47414		8.804035	1.107598	3.068606	-0.658229	-0.354405	-0.083305	-1.165039	-0.342285	-0.485107
47415		8.421699	0.816239	3.032356	-0.697712	-0.368819	-0.044769	-1.166016	-0.346191	-0.483643
47416		8.301721	0.564575	2.975744	-0.695159	-0.477318	-0.019895	-1.168213	-0.336914	-0.484131
47417		8.137570	0.273088	2.912078	-0.708548	-0.526244	0.015458	-1.172852	-0.341797	-0.474854
47418		7.945718	-0.118771	2.671725	-0.668842	-0.595198	0.054922	-1.171631	-0.333740	-0.479004
47419		7.961587	-0.035597	2.492376	-0.567132	-0.699177	0.111635	-1.173096	-0.326660	-0.460449
47420		8.194099	0.004488	2.382462	-0.506114	-0.748542	0.182784	-1.189209	-0.331055	-0.453125
47421		8.676603	-0.111890	1.971975	-0.491679	-0.757933	0.256719	-1.182861	-0.315186	-0.446045
47422		9.247653	-0.253827	1.838281	-0.412048	-0.698948	0.310306	-1.193848	-0.314453	-0.445313
47423		9.614870	-0.313859	1.888941	-0.395252	-0.608238	0.324963	-1.198975	-0.306396	-0.444092
47424		9.717157	-0.587642	1.727465	-0.412662	-0.550685	0.306946	-1.192871	-0.302490	-0.435303
47425		9.830997	-0.687332	1.519705	-0.388805	-0.538086	0.269590	-1.203613	-0.302246	-0.423584
47426		9.937818	-0.728186	1.303055	-0.391121	-0.491459	0.218054	-1.203125	-0.297607	-0.420410
47427		9.751420	-0.724070	1.193749	-0.362467	-0.370196	0.166136	-1.203857	-0.294189	-0.423340
47428		9.689136	-0.474817	1.261167	-0.338166	-0.248180	0.148346	-1.209717	-0.289551	-0.416992
47429		9.662044	-0.384779	1.112602	-0.305066	-0.123165	0.146420	-1.210449	-0.290039	-0.417969
47430		9.737956	-0.354220	1.087974	-0.218093	0.019492	0.140286	-1.201904	-0.287109	-0.412842
47431		9.857150	-0.318393	1.008639	-0.172426	0.132340	0.111927	-1.207520	-0.285889	-0.417480
47432		9.848054	-0.696383	0.767022	-0.168051	0.244161	0.078139	-1.208008	-0.281006	-0.422363
47433		9.799567	-0.826999	0.742761	-0.082250	0.373853	0.043835	-1.202881	-0.288086	-0.429199
47434		9.589357	-0.910297	0.995561	-0.012067	0.459193	0.025735	-1.196045	-0.285400	-0.433594
47435		9.253992	-0.988594	1.059570	0.029251	0.428401	0.015563	-1.198242	-0.286621	-0.436768
47436		9.040927	-1.138949	0.829923	0.056761	0.341730	0.015289	-1.197266	-0.280273	-0.442383
47437		8.811018	-1.346008	0.592596	0.033846	0.241337	0.015336	-1.194580	-0.274414	-0.452393
47438		8.615277	-1.775318	0.330916	0.019080	0.147146	0.009690	-1.195801	-0.278076	-0.442139
47439		8.619016	-2.134331	0.063460	0.182908	0.146706	-0.009378	-1.199219	-0.290039	-0.444336
47440		8.427836	-1.998872	0.480855	0.431403	0.274268	-0.040565	-1.194580	-0.282715	-0.449463
47441		8.421589	-1.913383	1.075823	0.584506	0.396915	-0.070651	-1.186279	-0.288330	-0.450195
47442		8.622336	-1.882785	1.607691	0.693346	0.378347	-0.079705	-1.195313	-0.291992	-0.453613
47443		9.154857	-1.784111	2.200100	0.764330	0.359444	-0.097310	-1.188721	-0.299805	-0.459473
47444		9.024540	-1.083648	2.737279	0.785063	0.306111	-0.134846	-1.179932	-0.302002	-0.461914
47445		9.026744	-0.546818	3.236613	0.677372	0.105597	-0.153440	-1.194336	-0.302246	-0.455566
47446		9.380569	-0.398580	2.980153	0.584022	-0.065589	-0.126211	-1.193115	-0.312744	-0.451904
47447		9.600560	0.171982	2.372896	0.491826	-0.206137	-0.081767	-1.186279	-0.316406	-0.448975
47448		10.040107	0.700346	1.640957	0.345472	-0.341464	-0.031691	-1.196289	-0.312744	-0.437744
47449		10.583082	0.966203	1.085415	0.235591	-0.439692	0.024138	-1.199707	-0.321045	-0.437012
47450		11.096789	0.456850	0.474581	0.090669	-0.542128	0.088777	-1.194824	-0.321777	-0.429443
47451		11.650620	-0.659488	-0.516344	0.008879	-0.630739	0.128481	-1.204834	-0.319336	-0.421631
47452		13.096225	-1.869164	-0.697397	0.152661	-0.424988	0.134688	-1.203369	-0.318848	-0.415771
47453		13.361375	-2.196651	-0.342765	0.413632	0.035552	0.153565	-1.209229	-0.316895	-0.411621
47454		13.716129	-1.289171	0.790611	0.606767	0.290738	0.235371	-1.205811	-0.317871	-0.412842
47455		13.253753	0.363888	2.054327	0.614943	0.354803	0.348082	-1.215820	-0.316406	-0.424072
47456		12.788550	1.657980	2.807417	0.468319	0.232671	0.449003	-1.206787	-0.308350	-0.422119
47457		12.536786	2.502570	3.163009	0.231363	0.101455	0.510105	-1.205322	-0.307373	-0.418213
47458		12.012572	2.440943	2.896334	-0.059748	0.041045	0.513982	-1.214844	-0.300293	-0.422607
47459		11.330373	1.550526	2.069810	-0.187103	0.067925	0.474108	-1.211182	-0.286621	-0.421143
47460		11.026566	0.328617	2.567335	-0.139956	0.144600	0.448713	-1.211426	-0.277344	-0.430908
47461		11.167433	-0.495588	3.683050	-0.009427	0.201756	0.417515	-1.214844	-0.278564	-0.433594
47462		10.901787	-0.354357	4.466518	0.145229	0.277948	0.382694	-1.216064	-0.267822	-0.429199
47463		10.025070	0.008932	5.057408	0.163074	0.327548	0.340869	-1.216797	-0.261230	-0.432617
47464		9.281107	0.148201	4.891543	0.235897	0.262128	0.363003	-1.208252	-0.259277	-0.437744
47465		8.601400	0.180143	4.970827	0.368633	0.297668	0.425176	-1.207520	-0.253174	-0.437744
47466		7.643974	0.216890	4.943376	0.438437	0.384124	0.509770	-1.213379	-0.253662	-0.447754
47467		6.984329	0.681666	4.653032	0.588583	0.378571	0.606306	-1.205078	-0.246338	-0.447998
47468		6.510733	1.211412	4.735007	0.654922	0.450710	0.697858	-1.213867	-0.234619	-0.446045
47469		6.249531	1.450064	4.967480	0.665309	0.466820	0.741039	-1.212646	-0.228760	-0.453369
47470		6.865446	1.542169	5.018955	0.661395	0.305532	0.762797	-1.202881	-0.225342	-0.462158
47471		7.808239	1.652791	4.649052	0.633227	0.160412	0.762562	-1.208252	-0.215576	-0.450928
47472		8.558760	1.615338	4.130410	0.598326	0.042894	0.725280	-1.215088	-0.214111	-0.453369
47473		9.073163	1.549766	3.860117	0.525458	-0.101563	0.650747	-1.215088	-0.208008	-0.449951
47474		9.364666	1.339647	3.509455	0.373084	-0.209601	0.537301	-1.218994	-0.198730	-0.452148
47475		9.436815	0.681745	3.193909	0.238387	-0.228610	0.404236	-1.216553	-0.197754	-0.447021
47476		9.722498	0.146713	2.736998	0.163359	-0.222675	0.259422	-1.211914	-0.195801	-0.440918
47477		9.844376	-0.106964	2.562538	0.179867	-0.144336	0.104842	-1.221924	-0.189941	-0.441162
47478		9.877303	-0.182417	2.393799	0.139415	-0.083214	-0.038216	-1.220215	-0.200928	-0.443115
47479		9.508934	0.101731	2.289900	0.175283	0.005287	-0.131834	-1.220459	-0.195801	-0.448242
47480		8.846125	0.455218	2.445320	0.198086	0.051449	-0.180894	-1.224854	-0.201904	-0.438721
47481		8.401008	0.787174	2.562666	0.161411	0.033509	-0.189401	-1.218506	-0.205566	-0.446045
47482		8.227427	0.973188	2.660930	0.060122	-0.062868	-0.179169	-1.220947	-0.206055	-0.444092
47483		8.253234	0.891788	2.437414	-0.103281	-0.179793	-0.181492	-1.217285	-0.211182	-0.442383
47484		8.204694	0.641966	2.080569	-0.207393	-0.244097	-0.191150	-1.222168	-0.207031	-0.445557
47485		8.332357	0.666291	2.072633	-0.245011	-0.323827	-0.225690	-1.225342	-0.214844	-0.430420
47486		8.928346	0.669462	1.883079	-0.381914	-0.462292	-0.302771	-1.219238	-0.218750	-0.434570
47487		9.649039	0.803476	1.247471	-0.514943	-0.523797	-0.389219	-1.226318	-0.220703	-0.427002
47488		9.855879	0.923614	0.767032	-0.594958	-0.386251	-0.471293	-1.228760	-0.223877	-0.419678
47489		9.585101	1.017381	0.857441	-0.578975	-0.168281	-0.509244	-1.230713	-0.225342	-0.419434
47490		8.848429	0.783587	1.237038	-0.579061	-0.035915	-0.493887	-1.226807	-0.232910	-0.424561
47491		8.246739	0.570465	1.511198	-0.548229	-0.010624	-0.439399	-1.230713	-0.227783	-0.431641
47492		7.895707	0.197557	1.514210	-0.513715	-0.024439	-0.362932	-1.223877	-0.238281	-0.431152
47493		7.844037	-0.288855	1.495578	-0.471239	-0.070710	-0.285182	-1.223145	-0.246094	-0.425049
47494		8.177494	-0.851906	1.328232	-0.384223	-0.131021	-0.197793	-1.223145	-0.229980	-0.427734
47495		8.772374	-1.419048	1.224198	-0.291090	-0.195643	-0.096129	-1.227051	-0.241699	-0.424805
47496		9.336147	-2.084486	0.901313	-0.202505	-0.231147	0.004463	-1.221191	-0.235352	-0.414795
47497		9.935513	-2.253402	0.462317	-0.081218	-0.225295	0.065541	-1.227783	-0.245117	-0.419434
47498		10.706131	-1.781245	-0.070764	0.058489	-0.208012	0.068170	-1.232178	-0.243896	-0.415039
47499		11.079949	-1.046182	-0.285538	0.157125	-0.081774	0.041624	-1.240234	-0.241943	-0.410645
47500		10.696642	-0.199041	-0.020968	0.213705	0.113804	0.009722	-1.232910	-0.240479	-0.415527
47501		9.989239	0.540562	0.350032	0.173187	0.229229	-0.037433	-1.224609	-0.239014	-0.420898
47502		9.464360	1.280106	0.617358	0.093557	0.241400	-0.083088	-1.226563	-0.246826	-0.417725
47503		9.209005	1.841264	0.712076	-0.043745	0.216859	-0.121887	-1.234619	-0.245850	-0.422363
47504		9.098879	2.252630	0.791441	-0.191305	0.232898	-0.138253	-1.220703	-0.238770	-0.428711
47505		8.916694	2.427727	1.013572	-0.346284	0.266480	-0.132446	-1.219482	-0.247070	-0.421387
47506		8.707938	2.471878	1.362918	-0.522330	0.289002	-0.106143	-1.225342	-0.241699	-0.437744
47507		8.612409	2.415760	1.623780	-0.671369	0.272204	-0.058382	-1.225830	-0.247559	-0.446289
47508		8.722013	2.272810	1.665269	-0.804615	0.238902	-0.007215	-1.221191	-0.237793	-0.443115
47509		8.966045	1.806754	1.375772	-0.896720	0.164563	0.043752	-1.217773	-0.231689	-0.444824
47510		9.561018	0.971741	1.531529	-0.819409	0.169628	0.072862	-1.222412	-0.231689	-0.446533
47511		9.460251	-0.177818	1.912748	-0.748459	0.225183	0.103974	-1.218750	-0.235596	-0.454834
47512		9.582524	-1.282978	2.438613	-0.600655	0.168814	0.104124	-1.227051	-0.222900	-0.455322
47513		9.692710	-1.706656	3.053102	-0.373691	0.048549	0.100880	-1.233154	-0.223389	-0.457764
47514		9.750331	-1.852194	2.974432	-0.204534	-0.115217	0.104948	-1.221191	-0.220215	-0.457031
47515		10.302158	-1.604219	2.079714	-0.058865	-0.343780	0.092268	-1.216064	-0.221436	-0.453857
47516		11.138788	-0.600810	1.064618	0.050950	-0.495496	0.060153	-1.229004	-0.220947	-0.445557
47517		11.508922	0.610488	0.060183	0.056604	-0.499635	0.023032	-1.223633	-0.216797	-0.439453
47518		11.818460	1.627711	-0.567816	-0.047279	-0.440054	-0.023775	-1.224609	-0.220703	-0.436523
47519		12.877093	2.298352	-0.295638	-0.099571	-0.150272	-0.072479	-1.236816	-0.220947	-0.423828
47520		13.545256	1.531374	0.633150	-0.234806	0.235932	-0.144035	-1.220215	-0.228516	-0.443848
47521		14.053863	-0.525668	1.421348	-0.230484	0.405549	-0.249290	-1.218262	-0.228760	-0.449463
47522		14.084638	-2.559633	1.870726	-0.187217	0.459687	-0.321602	-1.210938	-0.228271	-0.443604
47523		13.933868	-3.541773	1.779442	-0.124959	0.562535	-0.362776	-1.213623	-0.233643	-0.457764
47524		13.706893	-3.064411	2.378940	0.144901	0.777858	-0.389946	-1.206787	-0.238281	-0.464355
47525		12.501134	-1.654640	3.773128	0.390331	0.933216	-0.379759	-1.201660	-0.245850	-0.473145
47526		11.607796	-0.504211	5.335681	0.476939	0.808523	-0.366695	-1.198242	-0.247314	-0.482178
47527		11.398835	0.270584	5.854301	0.410223	0.534679	-0.381552	-1.199463	-0.258545	-0.486572
47528		11.248973	0.713241	5.842452	0.381566	0.447016	-0.417839	-1.187744	-0.268066	-0.489502
47529		9.586542	0.125868	5.479889	0.333403	0.460363	-0.399509	-1.183838	-0.266602	-0.497803
47530		7.672363	-0.065521	5.185788	0.374733	0.394194	-0.366297	-1.185791	-0.270752	-0.490479
47531		6.451971	0.360583	5.285187	0.349599	0.369222	-0.328447	-1.189697	-0.274658	-0.505859
47532		6.358252	1.346972	5.674546	0.280709	0.282424	-0.261721	-1.181152	-0.286865	-0.505859
47533		6.509082	1.543396	5.394110	0.056247	0.243083	-0.230690	-1.169189	-0.287842	-0.508301
47534		6.917827	1.552457	5.127708	0.053235	0.245816	-0.162080	-1.167480	-0.291260	-0.516113
47535		7.597977	1.195219	5.043660	0.012600	0.209168	-0.092221	-1.165527	-0.283203	-0.511963
47536		8.282431	0.431301	4.553893	-0.015526	0.141459	-0.042567	-1.162842	-0.291016	-0.519775
47537		8.645265	-0.193517	3.902911	0.040717	0.059583	-0.037388	-1.160156	-0.293213	-0.514893
47538		8.990646	-0.317824	3.536874	0.121705	0.002919	-0.068630	-1.165527	-0.297363	-0.513428
47539		9.094266	-0.159701	3.424254	0.181132	-0.047645	-0.087355	-1.163086	-0.293701	-0.518799
47540		8.879754	0.279047	3.350159	0.218700	-0.103364	-0.077699	-1.153564	-0.298340	-0.506348
47541		8.792345	0.646792	3.241962	0.205530	-0.153073	-0.049773	-1.169678	-0.300049	-0.504883
47542		8.488019	0.901995	3.186400	0.172457	-0.146612	-0.007980	-1.161377	-0.306885	-0.507080
47543		8.246582	1.103361	3.192109	0.137283	-0.172376	0.026688	-1.164063	-0.312012	-0.504639
47544		8.224650	0.974010	3.159348	0.067041	-0.175932	0.045212	-1.161621	-0.295898	-0.505371
47545		7.922009	1.029921	2.894748	0.035158	-0.179266	0.050196	-1.163574	-0.298828	-0.497314
47546		8.105050	1.196843	3.114897	0.013597	-0.246920	0.037294	-1.165039	-0.301758	-0.503662
47547		8.585826	1.176044	3.031683	-0.100819	-0.371048	0.038006	-1.172119	-0.296387	-0.491699
47548		8.830543	1.212273	2.636541	-0.182485	-0.429520	0.023652	-1.166504	-0.295654	-0.490234
47549		8.641378	1.003748	2.508439	-0.213503	-0.426928	0.020177	-1.176758	-0.295410	-0.484619
47550		8.500301	0.755696	2.623592	-0.211859	-0.459089	0.044780	-1.174561	-0.293701	-0.481689
47551		8.278764	0.190878	2.571902	-0.306015	-0.508898	0.043698	-1.176514	-0.301270	-0.474365
47552		8.354691	0.100667	2.604188	-0.295745	-0.580568	0.025844	-1.177734	-0.296143	-0.477539
47553		8.612773	0.298468	2.525278	-0.265174	-0.658929	0.039908	-1.181152	-0.279053	-0.456299
47554		8.993027	0.087899	2.311054	-0.284167	-0.676960	0.089164	-1.177490	-0.285645	-0.454590
47555		9.312534	-0.152854	2.040566	-0.312068	-0.653157	0.134386	-1.187988	-0.279785	-0.444092
47556		9.699844	-0.246020	1.725181	-0.341697	-0.620147	0.166575	-1.189453	-0.285889	-0.435791
47557		9.947727	-0.248039	1.557059	-0.368086	-0.531575	0.179886	-1.192383	-0.282227	-0.438477
47558		9.927478	-0.327702	1.618263	-0.393237	-0.386439	0.177493	-1.202881	-0.270264	-0.434082
47559		9.837788	-0.385473	1.653598	-0.401870	-0.271452	0.164566	-1.192627	-0.273682	-0.428711
47560		9.638698	-0.608703	1.777470	-0.409796	-0.196407	0.135834	-1.190918	-0.270264	-0.423340
47561		9.397254	-0.749348	1.760206	-0.413686	-0.165615	0.091013	-1.202881	-0.273682	-0.417969
47562		9.180419	-0.852096	1.736040	-0.423716	-0.130136	0.032005	-1.199707	-0.258789	-0.428711
47563		8.992010	-0.945160	1.617421	-0.442824	-0.115046	-0.018541	-1.194336	-0.269287	-0.426270
47564		8.983383	-0.932629	1.634582	-0.412960	-0.051675	-0.053900	-1.191895	-0.259277	-0.433105
47565		8.856755	-0.955775	1.720348	-0.388888	0.018451	-0.073377	-1.191895	-0.262451	-0.433350
47566		8.864717	-1.093114	1.571541	-0.396372	0.055566	-0.095642	-1.204102	-0.263916	-0.437256
47567		9.148838	-1.323631	1.307299	-0.369686	0.063226	-0.112697	-1.194336	-0.265625	-0.431396
47568		9.190327	-1.270165	0.991827	-0.301643	0.110530	-0.155511	-1.193604	-0.258789	-0.435547
47569		9.167449	-1.374260	1.035004	-0.253510	0.165170	-0.193681	-1.193115	-0.263916	-0.437012
47570		9.062317	-1.410656	1.160529	-0.218227	0.179581	-0.219358	-1.189453	-0.264893	-0.438477
47571		9.202103	-1.497485	1.093896	-0.202444	0.139238	-0.243636	-1.182861	-0.265137	-0.454346
47572		9.408684	-1.647182	0.673304	-0.136671	0.114743	-0.264612	-1.186768	-0.270996	-0.444824
47573		9.461248	-1.682843	0.304237	-0.027754	0.171182	-0.280936	-1.191406	-0.277588	-0.448730
47574		9.291573	-1.539488	0.424737	0.100986	0.262866	-0.281040	-1.188965	-0.275879	-0.458008
47575		9.071922	-1.233785	1.207002	0.161148	0.255370	-0.260997	-1.190918	-0.293213	-0.454590
47576		8.913751	-1.054057	1.743138	0.168737	0.126076	-0.229773	-1.187012	-0.291016	-0.448242
47577		8.963558	-1.073926	1.937492	0.201121	0.019072	-0.197636	-1.190186	-0.292480	-0.451660
47578		9.138245	-1.082021	1.894486	0.242628	-0.092605	-0.160091	-1.190430	-0.293213	-0.448730
47579		9.484014	-1.143842	1.981264	0.294895	-0.116041	-0.140406	-1.187500	-0.298584	-0.441650
47580		9.804555	-1.306368	1.946656	0.342453	-0.107246	-0.129114	-1.189209	-0.300781	-0.439453
47581		10.092396	-1.609290	1.831912	0.360552	-0.097517	-0.109483	-1.189941	-0.302246	-0.445801
47582		10.413242	-1.439990	1.324985	0.397451	-0.140770	-0.079334	-1.193359	-0.307861	-0.438232
47583		10.779086	-1.066537	0.732570	0.389382	-0.205141	-0.027368	-1.186768	-0.313721	-0.432861
47584		11.008163	-1.156177	0.267093	0.352868	-0.250336	0.037485	-1.201416	-0.309570	-0.435791
47585		11.272633	-1.526348	-0.118506	0.347372	-0.249826	0.086676	-1.204102	-0.308838	-0.421875
47586		11.567426	-1.787395	-0.321094	0.414083	-0.169860	0.116331	-1.203125	-0.312744	-0.419434
47587		12.199991	-1.538415	0.609685	0.600667	0.051563	0.136338	-1.203369	-0.310059	-0.420410
47588		12.395566	-0.550704	1.639617	0.598365	0.176173	0.196213	-1.193359	-0.310059	-0.424805
47589		12.643783	0.622594	2.575239	0.582714	0.157463	0.319244	-1.208984	-0.310303	-0.425293
47590		12.640811	1.686947	3.031623	0.433583	0.106717	0.435251	-1.200439	-0.308838	-0.413086
47591		12.327979	2.612595	2.722726	0.241655	-0.006730	0.504771	-1.208496	-0.302490	-0.417236
47592		12.373711	3.206320	3.353892	0.064097	0.024230	0.541307	-1.209717	-0.297119	-0.420166
47593		11.304306	3.446200	3.679726	-0.166040	0.107933	0.523920	-1.211182	-0.283936	-0.425781
47594		11.134546	2.123680	3.351617	-0.409714	0.024606	0.507228	-1.216553	-0.280273	-0.418945
47595		11.189796	0.470371	3.535355	-0.444293	0.035271	0.491053	-1.210693	-0.270508	-0.424561
47596		11.335804	-0.138728	4.006835	-0.352716	0.062262	0.466860	-1.209961	-0.258057	-0.422363
47597		10.995848	-0.529824	3.960692	-0.275648	0.099645	0.485655	-1.216797	-0.250244	-0.422119
47598		9.799748	-1.101255	3.572442	-0.185694	0.164319	0.478800	-1.206299	-0.244629	-0.432861
47599		8.354084	-0.988935	3.864531	0.018219	0.322231	0.419708	-1.208496	-0.239258	-0.433594
47600		7.151053	-0.350609	4.136536	0.154813	0.387968	0.351593	-1.214600	-0.232666	-0.432861
47601		6.406971	0.372475	4.318124	0.229613	0.418304	0.285523	-1.212402	-0.227295	-0.444336
47602		6.352709	1.505076	4.333339	0.309671	0.414733	0.230094	-1.203857	-0.231201	-0.457764
47603		6.933603	2.607642	4.470954	0.334787	0.420778	0.245506	-1.206543	-0.222412	-0.453613
47604		7.595129	3.369328	4.459891	0.265567	0.405123	0.304394	-1.207031	-0.229736	-0.462402
47605		8.669649	3.624269	4.204855	0.124218	0.276727	0.386472	-1.197754	-0.213135	-0.462646
47606		9.842420	3.168595	3.686100	-0.066133	0.109325	0.474689	-1.208008	-0.210693	-0.460938
47607		10.524670	2.095491	3.137425	-0.201209	0.037722	0.533222	-1.211426	-0.204590	-0.452881
47608		10.183877	0.872135	2.936867	-0.279866	0.084886	0.512159	-1.210938	-0.194336	-0.463867
47609		9.625484	-0.127665	3.225817	-0.246621	0.062703	0.427491	-1.204346	-0.198486	-0.468262
47610		9.551116	-0.848541	3.389516	-0.253253	-0.054106	0.298305	-1.213135	-0.187012	-0.462158
47611		9.884120	-1.262114	3.136547	-0.281032	-0.250382	0.137068	-1.212158	-0.179443	-0.464355
47612		10.044964	-1.455036	2.442132	-0.313346	-0.309690	-0.034540	-1.212402	-0.188477	-0.462158
47613		9.761572	-1.399533	2.040838	-0.229701	-0.229316	-0.160691	-1.214600	-0.180664	-0.460449
47614		9.393508	-0.820887	2.218693	-0.069195	-0.145891	-0.222840	-1.213379	-0.181152	-0.463379
47615		9.035432	-0.278537	2.372609	0.025278	-0.085479	-0.236080	-1.219238	-0.202881	-0.458496
47616		8.792008	0.192452	2.575198	0.077656	-0.047018	-0.213594	-1.215332	-0.188477	-0.458252
47617		8.575259	0.324782	2.510223	0.035079	-0.004815	-0.193041	-1.217773	-0.201660	-0.461426
47618		8.417672	0.285259	2.762875	0.023874	0.001210	-0.183120	-1.210938	-0.199951	-0.457275
47619		8.425329	0.075472	2.855553	-0.047711	-0.113653	-0.188766	-1.218018	-0.204102	-0.454346
47620		8.277993	-0.108985	2.632986	-0.103400	-0.207779	-0.192397	-1.213135	-0.197510	-0.455566
47621		8.435182	-0.054393	2.218249	-0.090385	-0.325072	-0.219603	-1.214355	-0.198242	-0.461914
47622		8.969914	-0.019424	1.901200	-0.129470	-0.406763	-0.264277	-1.217529	-0.201904	-0.441895
47623		9.533399	0.013976	1.317486	-0.190135	-0.435038	-0.308329	-1.215820	-0.211670	-0.435791
47624		9.926047	-0.033673	0.790548	-0.212106	-0.336149	-0.332861	-1.221436	-0.208252	-0.433838
47625		9.957747	0.005839	0.751192	-0.193531	-0.145598	-0.328126	-1.221191	-0.220459	-0.437500
47626		9.733544	-0.012818	0.904418	-0.147752	0.029603	-0.302572	-1.222900	-0.221191	-0.442871
47627		9.181404	0.124553	1.345926	-0.099165	0.198480	-0.263269	-1.216797	-0.218750	-0.439941
47628		8.798103	0.313403	1.968563	-0.073482	0.236305	-0.209188	-1.223389	-0.227051	-0.437500
47629		8.648366	0.461575	2.170477	-0.125854	0.168060	-0.165470	-1.217285	-0.234863	-0.448730
47630		8.691940	0.456192	1.874054	-0.176242	0.100213	-0.124593	-1.208008	-0.226807	-0.447021
47631		8.816135	0.490720	1.557416	-0.205342	0.084425	-0.090569	-1.218018	-0.226318	-0.449951
47632		8.946362	0.584690	1.209672	-0.210888	0.124965	-0.070148	-1.213135	-0.223145	-0.458008
47633		9.055340	0.527863	1.133815	-0.239180	0.209637	-0.051560	-1.213135	-0.220215	-0.451660
47634		8.881000	0.286481	1.190516	-0.285008	0.301319	-0.023637	-1.211914	-0.218994	-0.457764
47635		8.751866	0.337929	1.037000	-0.338733	0.290852	-0.016210	-1.206055	-0.226563	-0.459961
47636		8.999302	0.620939	1.016883	-0.361180	0.250783	-0.017734	-1.216553	-0.230469	-0.466309
47637		9.221657	0.959057	1.061166	-0.398794	0.225223	-0.018025	-1.211182	-0.212891	-0.465576
47638		9.425922	1.181621	0.956951	-0.423323	0.222893	-0.011339	-1.206055	-0.218018	-0.470215
47639		9.420602	1.339253	0.957759	-0.455914	0.253250	0.003664	-1.208740	-0.223145	-0.471924
47640		9.339274	1.289482	1.001323	-0.494604	0.241881	0.033229	-1.208984	-0.222900	-0.482178
47641		9.233128	1.063681	1.000985	-0.521403	0.212308	0.063369	-1.213867	-0.214844	-0.487549
47642		9.147373	0.817072	1.240720	-0.506943	0.217633	0.096247	-1.203369	-0.209717	-0.485840
47643		9.289469	0.892384	1.724847	-0.448926	0.221884	0.122037	-1.197266	-0.208984	-0.487305
47644		9.289548	0.899190	2.251993	-0.446463	0.260189	0.139593	-1.205322	-0.206055	-0.495850
47645		9.196107	0.972301	2.586155	-0.451947	0.256194	0.134795	-1.203125	-0.201416	-0.497070
47646		9.246793	1.145095	3.004986	-0.449594	0.204302	0.109150	-1.205078	-0.186768	-0.496094
47647		9.225728	1.074732	3.079904	-0.472107	0.052928	0.078018	-1.206299	-0.190430	-0.499756
47648		9.085693	0.671700	2.665104	-0.456019	-0.138446	0.063521	-1.204102	-0.195557	-0.500488
47649		9.167425	0.458986	2.101758	-0.474860	-0.311942	0.034735	-1.204102	-0.183350	-0.500488
47650		9.601890	0.498070	1.516491	-0.480304	-0.455027	-0.001002	-1.203857	-0.189209	-0.493896
47651		9.996617	0.692341	0.851200	-0.505897	-0.591781	-0.033054	-1.213623	-0.181641	-0.490479
47652		10.665922	0.805211	0.114924	-0.532340	-0.705694	-0.059859	-1.205811	-0.186523	-0.474854
47653		11.972467	1.034981	-0.187311	-0.432318	-0.569210	-0.103719	-1.208252	-0.174316	-0.476807
47654		13.536912	0.821201	0.822016	-0.365084	-0.224496	-0.185992	-1.212158	-0.185547	-0.475830
47655		14.015545	-0.914978	1.232729	-0.446147	-0.029094	-0.267135	-1.207764	-0.185059	-0.478271
47656		14.712536	-2.781657	1.338856	-0.348219	-0.075524	-0.366287	-1.218506	-0.201660	-0.471436
47657		14.530396	-3.510453	1.567854	-0.152486	0.054436	-0.436697	-1.204834	-0.197998	-0.469971
47658		13.592900	-2.939269	1.261247	0.072992	0.157953	-0.457148	-1.210938	-0.201172	-0.464111
47659		12.711558	-1.085900	1.797855	0.367314	0.265430	-0.417242	-1.197266	-0.213135	-0.472900
47660		12.056885	0.470894	2.805679	0.457688	0.296749	-0.345184	-1.199951	-0.204834	-0.476807
47661		11.939734	1.051963	3.275618	0.370191	0.219510	-0.290369	-1.190674	-0.221924	-0.481689
47662		11.997049	1.439299	3.405186	0.274534	0.159292	-0.279191	-1.198486	-0.223633	-0.478027
47663		11.685145	1.535557	3.990854	0.225605	0.272501	-0.278287	-1.189941	-0.225098	-0.491455
47664		10.169986	0.986094	4.523960	0.151584	0.380167	-0.257401	-1.184326	-0.234131	-0.478760
47665		8.694756	0.364887	4.873780	0.090872	0.316679	-0.235010	-1.179688	-0.237793	-0.487549
47666		7.571388	0.052432	4.736301	-0.037047	0.229128	-0.262735	-1.181885	-0.234619	-0.494629
47667		6.779890	-0.030153	4.488727	-0.137772	0.185737	-0.331511	-1.183350	-0.239990	-0.496094
47668		6.234075	0.069139	4.309659	-0.236116	0.176019	-0.411079	-1.179932	-0.247559	-0.498535
47669		6.047722	0.013428	4.039269	-0.324469	0.177810	-0.480665	-1.170410	-0.249023	-0.507813
47670		6.675390	0.055633	3.874631	-0.323410	0.176224	-0.536211	-1.175049	-0.253906	-0.501953
47671		7.160336	-0.120460	4.096350	-0.312593	0.220404	-0.521298	-1.166992	-0.255859	-0.504639
47672		7.525576	-0.797354	4.083347	-0.308304	0.195583	-0.479753	-1.172852	-0.263428	-0.500977
47673		7.854227	-1.327691	3.860812	-0.201654	0.049664	-0.437015	-1.165771	-0.272705	-0.521240
47674		8.218524	-1.573072	3.540230	-0.087055	-0.075373	-0.384185	-1.149658	-0.268311	-0.510254
47675		8.903712	-1.538153	3.186630	-0.020796	-0.173789	-0.320020	-1.163818	-0.278076	-0.508057
47676		9.398704	-1.077943	2.846111	0.062058	-0.286088	-0.241750	-1.164551	-0.278076	-0.501221
47677		9.959367	-0.613862	2.520977	0.092407	-0.322848	-0.146058	-1.161133	-0.280518	-0.501221
47678		10.122787	-0.308964	2.394625	0.079153	-0.259954	-0.062893	-1.160400	-0.286133	-0.491943
47679		10.048839	0.070960	2.463121	0.126190	-0.191934	0.007276	-1.159912	-0.286865	-0.492188
47680		9.847133	0.134261	2.636466	0.104024	-0.129629	0.049330	-1.159912	-0.285400	-0.489014
47681		9.604699	0.074693	2.749421	0.103388	-0.087937	0.078051	-1.167480	-0.280273	-0.486816
47682		9.408663	0.051143	2.866629	0.080700	-0.115715	0.087905	-1.165771	-0.283447	-0.482178
47683		9.033692	-0.110950	2.726687	0.054411	-0.165940	0.073807	-1.165283	-0.282715	-0.496338
47684		8.959405	-0.230938	2.604458	0.076573	-0.262209	0.059860	-1.166992	-0.276611	-0.480957
47685		8.794497	-0.481641	2.337073	0.092514	-0.285171	0.072003	-1.175293	-0.285645	-0.481445
47686		8.680137	-0.509965	2.293522	0.151160	-0.318306	0.099776	-1.174072	-0.288818	-0.477539
47687		8.737999	-0.448415	2.474310	0.155402	-0.370043	0.132847	-1.168945	-0.276367	-0.467041
47688		8.964078	-0.599287	2.382958	0.128775	-0.454630	0.191122	-1.176270	-0.279785	-0.462891
47689		9.317452	-0.716922	2.118367	0.158069	-0.464897	0.242245	-1.174805	-0.272705	-0.465088
47690		9.525635	-0.745176	1.938579	0.181841	-0.403336	0.277991	-1.178955	-0.275146	-0.455566
47691		9.599710	-0.763509	2.011109	0.249486	-0.270105	0.295964	-1.186768	-0.273438	-0.461182
47692		9.374907	-0.659387	2.014203	0.268517	-0.137064	0.292513	-1.184326	-0.261230	-0.449219
47693		9.293805	-0.528415	2.048269	0.271853	-0.077193	0.277504	-1.188232	-0.268311	-0.451904
47694		9.233436	-0.600253	2.008517	0.230988	0.008111	0.249881	-1.184326	-0.255615	-0.450928
47695		8.796860	-0.512427	2.052300	0.228976	0.144110	0.219846	-1.174072	-0.264648	-0.452637
47696		8.411058	-0.406205	2.095819	0.235575	0.202680	0.195416	-1.177490	-0.264648	-0.448242
47697		8.232314	-0.453101	2.186491	0.202140	0.187298	0.162568	-1.192139	-0.256592	-0.446045
47698		8.288877	-0.524026	2.191785	0.176658	0.133416	0.128582	-1.174805	-0.255615	-0.456055
47699		8.455679	-0.733683	2.057791	0.145210	0.084577	0.089977	-1.189453	-0.261719	-0.440918
47700		8.673134	-0.987515	1.781097	0.120324	0.069197	0.042695	-1.185547	-0.260498	-0.449951
47701		8.831107	-1.029087	1.626488	0.122204	0.085233	-0.010710	-1.186035	-0.255615	-0.458740
47702		8.932713	-1.056426	1.406208	0.118276	0.073599	-0.052650	-1.174561	-0.261475	-0.456787
47703		9.078949	-1.138772	1.227580	0.118247	0.040715	-0.088373	-1.182617	-0.266357	-0.463623
47704		9.289422	-1.219748	1.090930	0.127722	0.013575	-0.116941	-1.183594	-0.265625	-0.464111
47705		9.412865	-1.330959	0.997248	0.145185	0.018207	-0.152822	-1.187012	-0.272705	-0.456299
47706		9.493001	-1.234211	0.891716	0.154578	0.021520	-0.175999	-1.181641	-0.274170	-0.452393
47707		9.332701	-1.085364	0.875948	0.196649	0.054905	-0.203212	-1.194336	-0.279541	-0.458496
47708		9.192473	-0.994891	0.979722	0.258484	0.068824	-0.226247	-1.180908	-0.278809	-0.457520
47709		9.297180	-0.795901	1.083930	0.301207	0.034034	-0.230763	-1.187256	-0.283936	-0.460205
47710		9.531887	-0.860756	1.197416	0.263398	-0.036885	-0.210944	-1.181641	-0.290039	-0.457520
47711		9.691791	-1.005859	1.009834	0.256460	-0.103652	-0.199907	-1.184814	-0.285889	-0.452637
47712		9.730691	-0.932984	0.951636	0.356004	-0.093389	-0.189969	-1.191162	-0.296631	-0.449951
47713		9.771798	-0.941961	1.324022	0.433081	-0.051298	-0.174909	-1.190186	-0.291504	-0.443848
47714		9.717476	-1.117814	1.583458	0.476500	-0.052662	-0.161126	-1.199707	-0.302002	-0.444336
47715		9.783783	-1.362377	1.822334	0.545719	-0.100548	-0.145054	-1.186279	-0.312744	-0.445068
47716		9.824697	-1.528782	1.785640	0.605322	-0.150966	-0.137015	-1.182373	-0.308594	-0.441895
47717		10.061720	-1.383580	1.642998	0.670969	-0.166058	-0.139715	-1.195068	-0.321289	-0.431152
47718		10.236946	-0.722424	1.366870	0.681616	-0.185409	-0.127374	-1.186523	-0.330078	-0.420654
47719		10.538848	0.143401	0.888885	0.656663	-0.271015	-0.061175	-1.199951	-0.328125	-0.425049
47720		10.627974	0.837010	0.309593	0.584136	-0.378294	0.037763	-1.198242	-0.325439	-0.413086
47721		10.998919	0.921947	-0.257485	0.409044	-0.585372	0.135239	-1.200439	-0.328613	-0.407959
47722		11.222931	0.198519	-1.184195	0.153611	-0.656156	0.201999	-1.210938	-0.332520	-0.402832
47723		11.413676	-0.525275	-1.768054	0.151347	-0.535028	0.239150	-1.211426	-0.321045	-0.387695
47724		12.753430	-0.816251	-1.377447	0.385020	-0.343159	0.236492	-1.211426	-0.327148	-0.391357
47725		13.372446	-0.296242	-0.122117	0.443224	0.259640	0.233224	-1.207520	-0.317627	-0.389160
47726		13.360852	0.457933	0.667711	0.471563	0.551825	0.281576	-1.211670	-0.314697	-0.393311
47727		13.168064	1.971414	1.901068	0.518212	0.744996	0.327356	-1.216797	-0.314941	-0.398682
47728		11.978879	3.271041	2.668737	0.451908	0.899671	0.332375	-1.212402	-0.312744	-0.413330
47729		11.086311	4.579843	4.371897	0.359777	1.105887	0.333450	-1.207275	-0.306152	-0.425293
47730		9.784218	4.797607	5.943575	-0.011237	1.152970	0.320444	-1.202148	-0.305420	-0.428955
47731		9.090121	3.822303	6.373434	-0.413719	0.601630	0.381156	-1.202393	-0.291748	-0.442139
47732		10.288527	2.109056	5.841100	-0.651286	-0.012585	0.492693	-1.202148	-0.296387	-0.436523
47733		11.661140	-0.404954	4.246030	-0.678955	-0.242551	0.639190	-1.200928	-0.272461	-0.447998
47734		12.017569	-1.084206	4.052024	-0.277420	-0.016592	0.725270	-1.210693	-0.266602	-0.440186
47735		10.600463	-0.240887	4.195839	-0.092741	0.281749	0.699617	-1.208740	-0.249512	-0.446777
47736		9.389012	0.436470	3.959964	0.032787	0.377788	0.598972	-1.207275	-0.252686	-0.450684
47737		8.852595	0.847636	3.735880	0.146450	0.477330	0.486243	-1.211182	-0.236084	-0.465332
47738		8.225355	1.445444	4.119935	0.208712	0.587503	0.371602	-1.205566	-0.242188	-0.464844
47739		7.868766	2.207363	4.496192	0.178223	0.551359	0.254029	-1.204834	-0.228516	-0.467773
47740		8.306059	2.876489	4.555843	0.077799	0.354029	0.150872	-1.196045	-0.227539	-0.478027
47741		9.101287	3.330681	4.256661	-0.080616	0.127745	0.060840	-1.197510	-0.231445	-0.467773
47742		9.940053	3.303918	3.739063	-0.287542	-0.063017	0.023345	-1.192383	-0.229980	-0.480957
47743		10.445833	2.742159	3.184721	-0.418739	-0.124158	0.035539	-1.199463	-0.224365	-0.479004
47744		10.551749	1.881994	2.938345	-0.506450	-0.116433	0.079686	-1.201660	-0.216797	-0.470215
47745		10.222115	0.451070	2.931811	-0.621825	-0.087222	0.103406	-1.207764	-0.211914	-0.486328
47746		9.739679	-0.759328	2.849221	-0.617667	-0.104385	0.073451	-1.207031	-0.205322	-0.472168
