// General information: 
//  MT Manager version: 2021.0.0 
//  XDA version: 2021.0.0 build 5908 rev 109668 built on 2021-04-19
// Device information: 
//  DeviceId: 00B4406D
//  ProductCode: MTW2-3A7G6
//  Firmware Version: 4.4.0
//  Hardware Version: 1.1.0
// Device settings: 
//  Filter Profile: human(46.1)
//  Option Flags: Orientation Smoother Disabled, Position/Velocity Smoother Disabled, Continuous Zero Rotation Update Disabled, AHS Disabled, ICC Disabled
// Coordinate system: ENU
PacketCounter	SampleTimeFine	Acc_X	Acc_Y	Acc_Z	Gyr_X	Gyr_Y	Gyr_Z	Mag_X	Mag_Y	Mag_Z
46467		12.620556	2.815153	0.631173	0.653591	-0.189752	0.194419	-1.199951	0.485352	0.519287
46468		13.102197	2.443297	0.630635	0.462038	-0.076380	0.145069	-1.199707	0.483154	0.523682
46469		13.281255	1.919865	0.813365	0.369811	0.019078	0.067126	-1.202148	0.485352	0.525635
46470		13.223786	1.551591	1.395345	0.046446	0.278393	0.018215	-1.206543	0.485352	0.512695
46471		13.219385	0.625988	1.362173	-0.279576	0.587136	0.008462	-1.206543	0.485352	0.510498
46472		13.049808	-0.116273	1.398120	-0.366376	0.903778	-0.011543	-1.210693	0.478516	0.497803
46473		12.665794	-0.336394	2.287428	-0.548554	1.197296	-0.024987	-1.221924	0.471924	0.489258
46474		12.167945	-0.110731	2.966102	-0.943443	1.561934	-0.080729	-1.235107	0.462646	0.474121
46475		11.638532	0.100338	0.897926	-0.903506	2.051052	-0.139726	-1.243652	0.455811	0.448242
46476		10.725743	-0.038830	-0.260193	-0.460332	2.467551	-0.126009	-1.250244	0.451416	0.414063
46477		11.848819	-1.191343	-1.127856	-0.163836	2.600684	-0.107949	-1.265625	0.444580	0.377197
46478		12.401859	-1.059928	-2.240122	0.173546	2.721025	-0.180413	-1.274414	0.444336	0.347168
46479		12.005574	-0.622143	-3.061630	0.143830	2.709787	-0.304663	-1.287354	0.435303	0.302002
46480		11.497225	-0.647781	-3.245540	-0.210960	2.613306	-0.397313	-1.298340	0.430664	0.271729
46481		11.396247	-0.219171	-2.975154	-0.519548	2.550289	-0.455835	-1.304688	0.417236	0.243896
46482		11.377941	-0.014135	-2.421300	-0.912334	2.636339	-0.501445	-1.315186	0.401367	0.214111
46483		11.424274	-0.395750	-2.091033	-1.213511	2.729760	-0.515441	-1.319336	0.392090	0.179932
46484		11.662980	-0.757965	-1.786887	-1.411010	2.764692	-0.523672	-1.330078	0.385254	0.143311
46485		12.256966	-1.061235	-1.562123	-1.565225	2.707021	-0.425069	-1.331787	0.367188	0.115723
46486		12.631655	-1.878527	-1.360006	-1.628006	2.647071	-0.314129	-1.342529	0.355957	0.081543
46487		12.446174	-2.074604	-1.572704	-1.381860	2.603612	-0.212899	-1.337646	0.355957	0.051270
46488		11.932196	-2.108714	-1.585496	-0.981956	2.508518	-0.103544	-1.337402	0.346924	0.025879
46489		11.256759	-1.408441	-1.365419	-0.542240	2.403441	-0.042505	-1.336914	0.340088	-0.008545
46490		10.821584	-1.266450	-1.020450	-0.324644	2.281308	-0.053912	-1.336914	0.344482	-0.038574
46491		10.759412	-0.699603	-0.755856	-0.295364	2.231981	-0.117820	-1.334229	0.337646	-0.057861
46492		10.603028	1.761911	-0.010422	-0.599836	2.278249	-0.098248	-1.331543	0.330811	-0.094238
46493		10.041279	1.564725	-0.520343	-1.327825	2.313435	-0.144744	-1.329102	0.326416	-0.124023
46494		9.457180	0.374371	-1.024440	-1.655407	2.332542	-0.111494	-1.319824	0.324219	-0.151855
46495		9.336965	-0.162218	-1.514293	-1.673310	2.245667	-0.037011	-1.322021	0.328613	-0.171387
46496		9.004868	-0.651733	-1.621789	-1.688520	2.141165	0.042172	-1.317383	0.323975	-0.199219
46497		8.615981	-1.333715	-1.304528	-1.634323	2.009668	0.036176	-1.308105	0.326172	-0.222656
46498		8.548444	-1.919302	-1.094647	-1.572791	1.924466	0.077319	-1.308105	0.326172	-0.244141
46499		8.771715	-1.446679	-0.452583	-1.397009	1.847172	0.067462	-1.296875	0.333008	-0.263672
46500		8.716568	-0.604103	0.133566	-1.300114	1.790352	0.065165	-1.292480	0.337402	-0.280762
46501		8.374601	-0.701860	0.278319	-1.196608	1.739994	0.065934	-1.287598	0.333008	-0.295654
46502		7.824527	-0.379254	0.762485	-0.986040	1.649259	0.032275	-1.280762	0.335205	-0.314941
46503		7.591864	-0.355548	1.201233	-0.918619	1.515629	-0.028519	-1.274170	0.337402	-0.330078
46504		7.217259	-0.001010	1.301963	-0.838934	1.402203	-0.090869	-1.267334	0.339844	-0.347168
46505		7.242352	0.924980	1.146861	-0.926340	1.250792	-0.152126	-1.267090	0.337402	-0.360107
46506		7.097860	0.631924	1.000133	-1.064101	1.138954	-0.164532	-1.260254	0.337402	-0.368652
46507		6.948014	0.456577	1.085601	-1.079650	1.018143	-0.183787	-1.260254	0.335205	-0.381348
46508		6.887405	-0.171229	1.060627	-1.028777	0.872234	-0.190180	-1.255615	0.335205	-0.385498
46509		6.882938	-0.649955	1.125103	-0.966802	0.724290	-0.202441	-1.253418	0.335205	-0.394287
46510		6.929361	-1.072542	1.219392	-0.927369	0.585074	-0.207186	-1.258057	0.339600	-0.394287
46511		6.910354	-1.283717	1.318599	-0.865238	0.462859	-0.193052	-1.255859	0.342041	-0.396484
46512		6.905855	-1.435463	1.459146	-0.781607	0.360154	-0.186500	-1.255859	0.344238	-0.392334
46513		6.823636	-1.560670	1.669735	-0.690567	0.255591	-0.182686	-1.260254	0.344238	-0.400879
46514		6.789728	-1.599751	1.828239	-0.617769	0.141309	-0.175816	-1.255859	0.342041	-0.403076
46515		6.936551	-1.518040	2.012342	-0.593597	0.031990	-0.158140	-1.258057	0.344238	-0.396729
46516		6.962028	-1.510377	2.075462	-0.605728	-0.056726	-0.136096	-1.260498	0.344238	-0.390137
46517		7.049930	-1.557472	2.119820	-0.645222	-0.127460	-0.100947	-1.262939	0.351074	-0.390381
46518		7.108640	-1.707480	1.910984	-0.676523	-0.174844	-0.069486	-1.260742	0.351074	-0.385986
46519		7.174940	-2.087232	1.548008	-0.598180	-0.259088	-0.039523	-1.267578	0.351074	-0.384033
46520		7.359196	-2.130277	1.666407	-0.412288	-0.331290	-0.017831	-1.263428	0.362305	-0.375732
46521		7.719294	-2.079855	2.067635	-0.290264	-0.356164	-0.038733	-1.270020	0.359863	-0.369141
46522		7.799006	-1.687672	2.668180	-0.176902	-0.300627	-0.088767	-1.272461	0.362305	-0.362793
46523		7.641078	-1.179104	3.343301	-0.135585	-0.259590	-0.139166	-1.274658	0.362305	-0.356445
46524		8.148777	-1.070465	3.872350	-0.160984	-0.276932	-0.152976	-1.283691	0.362305	-0.356689
46525		8.314656	-1.115555	3.900866	-0.116497	-0.252666	-0.188718	-1.281494	0.362305	-0.354492
46526		8.571088	-0.895738	4.136843	0.028156	-0.243973	-0.232395	-1.283691	0.359863	-0.350098
46527		9.173871	-0.669900	4.748543	0.093947	-0.191121	-0.269019	-1.285889	0.351074	-0.343506
46528		9.357806	-0.813259	5.620747	0.066452	-0.077214	-0.291514	-1.281250	0.355469	-0.347900
46529		9.669681	-1.151996	6.080185	-0.016427	-0.078257	-0.330716	-1.290527	0.355469	-0.341553
46530		9.746818	-1.096244	5.815810	-0.022901	-0.102160	-0.376695	-1.292236	0.344238	-0.341309
46531		10.017885	-1.030414	5.942309	-0.048768	-0.098798	-0.419075	-1.299072	0.339600	-0.330566
46532		10.212794	-0.916343	6.356438	-0.083646	-0.003823	-0.458128	-1.303467	0.341797	-0.341309
46533		10.167966	-0.640505	6.668632	-0.203244	0.050534	-0.465684	-1.298828	0.335205	-0.341064
46534		10.174746	-0.382194	7.030618	-0.377824	0.050556	-0.438271	-1.310059	0.330566	-0.339111
46535		10.187716	-0.328995	7.147711	-0.526094	0.053444	-0.399774	-1.305420	0.328369	-0.343262
46536		9.998749	-0.367776	7.268707	-0.664171	0.090100	-0.366572	-1.305420	0.328369	-0.336670
46537		9.564398	-0.471283	7.256906	-0.776746	0.096404	-0.356421	-1.305420	0.326172	-0.330322
46538		8.827695	-0.643775	7.012828	-0.791807	0.028125	-0.358242	-1.309814	0.323975	-0.332520
46539		8.102848	-0.719783	6.878668	-0.800211	-0.117787	-0.383591	-1.312012	0.321533	-0.330322
46540		7.206931	-0.902861	6.976654	-0.693845	-0.184052	-0.398922	-1.309570	0.319336	-0.327881
46541		6.087200	-1.237486	6.244593	-0.461163	-0.317773	-0.391070	-1.316406	0.312500	-0.314941
46542		6.544574	-2.441118	4.507063	-0.180802	-0.607440	-0.326950	-1.318359	0.303711	-0.308350
46543		9.484748	-3.223193	2.527454	-0.088325	-1.058115	-0.240238	-1.320801	0.310303	-0.293457
46544		13.298927	-4.257890	1.730806	-0.119329	-1.303614	-0.196763	-1.329834	0.308105	-0.280762
46545		16.118118	-3.803189	2.581358	-0.464388	-1.134748	-0.201036	-1.334473	0.310303	-0.263672
46546		18.018655	-2.941068	2.841563	-0.652918	-0.682829	-0.105097	-1.325439	0.305908	-0.254883
46547		18.380990	-2.422069	2.272288	-0.478336	-0.089258	0.023307	-1.336914	0.312744	-0.255127
46548		15.938764	-3.625182	2.480011	-0.343594	0.504076	0.071438	-1.327881	0.310303	-0.261475
46549		11.254942	-4.801379	2.677206	0.026597	0.744540	0.117220	-1.323242	0.310303	-0.271973
46550		7.099700	-4.117399	1.772026	0.863089	0.176002	0.213812	-1.321045	0.310303	-0.276367
46551		5.330264	-1.834539	0.139490	1.440760	-0.636702	0.169555	-1.318604	0.303711	-0.271729
46552		4.709639	0.904560	-0.358653	1.458702	-1.110371	-0.092966	-1.318359	0.299072	-0.258789
46553		4.921949	3.398747	0.388056	1.211749	-1.264409	-0.419057	-1.324951	0.285645	-0.239258
46554		6.150036	5.072387	1.289833	1.018231	-1.294590	-0.633664	-1.326904	0.276611	-0.226074
46555		7.853462	5.724744	1.288685	0.939453	-1.375262	-0.653081	-1.329102	0.270020	-0.215332
46556		9.726168	4.831728	0.656681	0.825465	-1.370505	-0.469620	-1.335449	0.256348	-0.189209
46557		11.350192	3.491653	0.371905	0.653053	-1.240204	-0.221407	-1.340088	0.258789	-0.176514
46558		12.185425	2.254967	0.453871	0.313949	-1.016071	0.030384	-1.335693	0.256348	-0.165527
46559		12.072937	0.977339	0.353003	-0.023338	-0.773897	0.165036	-1.337891	0.258789	-0.150635
46560		11.025680	0.067119	0.670347	-0.182358	-0.634855	0.156020	-1.342773	0.260986	-0.139893
46561		9.361602	-0.575388	1.091933	-0.262534	-0.703321	0.039141	-1.344971	0.260986	-0.131348
46562		7.857729	-0.878583	1.534934	-0.251376	-0.953358	-0.146724	-1.344971	0.260986	-0.114258
46563		7.195080	-0.696679	1.605151	-0.074382	-1.232734	-0.317032	-1.349609	0.256592	-0.099121
46564		7.350130	-0.740029	1.222435	0.114715	-1.468219	-0.412603	-1.347168	0.249756	-0.081787
46565		8.009973	-0.769823	0.904384	0.353933	-1.635037	-0.422099	-1.349121	0.240723	-0.057861
46566		8.976149	-0.637427	0.661738	0.483098	-1.725848	-0.399940	-1.355957	0.236328	-0.031982
46567		9.489777	-0.748335	0.508893	0.626468	-1.712167	-0.340588	-1.360596	0.236328	-0.008545
46568		10.073983	0.092505	0.143985	0.647106	-1.636960	-0.276776	-1.351563	0.231934	0.013184
46569		9.972481	0.315189	-0.320523	0.674201	-1.454114	-0.192249	-1.351807	0.234131	0.028320
46570		9.766817	1.401523	-0.507411	0.660689	-1.263942	-0.175834	-1.355957	0.225098	0.039063
46571		9.091077	1.671918	-0.472195	0.500155	-1.084569	-0.171057	-1.351807	0.231934	0.060547
46572		8.378364	-0.068207	-0.229516	0.456896	-1.087347	-0.166344	-1.356201	0.227539	0.069336
46573		8.361195	0.157227	0.369636	0.512068	-1.216767	-0.218423	-1.354248	0.229736	0.086426
46574		8.737056	0.585889	0.325333	0.520256	-1.385485	-0.322004	-1.349365	0.218506	0.110352
46575		9.065326	0.469433	-0.156175	0.579957	-1.550060	-0.364626	-1.351563	0.216309	0.134033
46576		9.647818	0.347746	-0.339295	0.802131	-1.702426	-0.323264	-1.356445	0.216309	0.157715
46577		10.107561	0.019508	-0.651490	0.978622	-1.751796	-0.256467	-1.349609	0.214111	0.183594
46578		10.284008	0.058341	-0.725220	1.049929	-1.692068	-0.182746	-1.340820	0.220947	0.205078
46579		10.039365	-0.158024	-0.784245	1.018349	-1.558677	-0.159981	-1.345215	0.214111	0.222412
46580		9.656767	0.284580	-0.372879	0.936204	-1.475243	-0.102242	-1.336670	0.220947	0.241699
46581		9.601481	0.127251	-0.578734	0.977273	-1.410192	-0.050748	-1.343506	0.220947	0.258789
46582		9.293546	0.487089	-0.691218	1.074979	-1.366093	-0.069306	-1.334473	0.223389	0.273926
46583		9.671983	0.997695	-0.891610	1.091149	-1.390403	-0.084224	-1.330322	0.232422	0.291016
46584		10.306307	1.798502	-0.646679	1.122346	-1.425242	-0.047690	-1.332764	0.234619	0.310303
46585		10.672301	1.499295	-1.044239	1.215202	-1.390812	-0.029907	-1.323975	0.232422	0.327637
46586		10.524893	1.630404	-1.174273	1.245240	-1.205096	-0.006337	-1.322021	0.241455	0.338379
46587		9.799162	1.104295	-1.129479	1.164682	-1.100504	-0.007410	-1.317627	0.248291	0.351074
46588		9.664289	1.118129	-1.428531	1.063919	-1.057752	-0.033198	-1.309082	0.255127	0.364014
46589		9.437644	1.119791	-1.901265	1.033358	-0.976333	-0.041396	-1.304688	0.261963	0.374756
46590		9.393224	0.778029	-2.390338	0.993341	-0.950547	-0.032360	-1.311768	0.264160	0.387451
46591		9.627757	0.497187	-2.522403	0.941123	-0.958608	0.000830	-1.307129	0.266357	0.395996
46592		9.733498	-0.220270	-2.146604	0.706198	-0.927388	-0.008537	-1.305176	0.270996	0.406738
46593		9.367216	-0.441828	-1.289144	0.577983	-0.886771	-0.012022	-1.294189	0.277832	0.421631
46594		9.162604	-0.551194	-0.568288	0.581319	-0.868096	-0.008101	-1.294434	0.282227	0.432373
46595		9.019717	-0.548359	-0.396473	0.774424	-0.849052	0.021717	-1.289795	0.277832	0.436768
46596		9.195274	-0.286122	-0.866256	0.974305	-0.840507	0.074446	-1.281250	0.293457	0.447266
46597		9.479234	-0.035197	-1.590442	1.102142	-0.840152	0.135002	-1.281494	0.300293	0.453613
46598		9.771911	0.211831	-2.278901	1.069693	-0.875764	0.186314	-1.275146	0.309326	0.462158
46599		9.875179	0.331068	-2.673956	0.942841	-0.941606	0.199028	-1.277588	0.316162	0.477051
46600		9.928713	0.319442	-2.578761	0.865629	-0.992984	0.185078	-1.264404	0.322998	0.481445
46601		10.089250	0.454626	-2.029561	0.852344	-0.993325	0.166827	-1.258057	0.334229	0.498291
46602		10.214485	0.582978	-1.453013	0.833545	-0.934841	0.153567	-1.253662	0.341064	0.500488
46603		10.356384	0.597307	-1.018460	0.845150	-0.860051	0.146882	-1.245117	0.352295	0.515381
46604		10.469116	0.589894	-0.691858	0.852577	-0.795349	0.144874	-1.247559	0.354736	0.519531
46605		10.399099	0.376781	-0.606887	0.861938	-0.770398	0.153608	-1.243164	0.361328	0.523682
46606		10.294425	0.283105	-0.671134	0.879908	-0.769328	0.168230	-1.236816	0.368164	0.530273
46607		10.192605	0.282542	-0.966731	0.912378	-0.758758	0.201755	-1.232666	0.377197	0.540771
46608		10.235266	0.436428	-1.364623	0.978463	-0.716087	0.235679	-1.224121	0.395264	0.540527
46609		10.480152	0.744236	-1.632399	1.064785	-0.662691	0.261587	-1.219727	0.399902	0.542480
46610		10.697115	1.153459	-1.463259	1.126471	-0.614498	0.267387	-1.220215	0.413330	0.550781
46611		10.957438	1.286333	-1.233730	1.079969	-0.585591	0.250947	-1.213623	0.417969	0.550781
46612		10.935370	1.024053	-0.883516	0.970695	-0.548851	0.240149	-1.211670	0.429199	0.552734
46613		10.784125	0.870881	-0.336995	0.858816	-0.469403	0.187275	-1.209717	0.438232	0.550293
46614		10.641079	0.595807	-0.304067	0.862755	-0.422091	0.181371	-1.207764	0.444824	0.554688
46615		10.379966	0.858016	-0.248160	0.952988	-0.353720	0.207294	-1.207764	0.447266	0.554443
46616		10.465027	1.669130	-0.241202	0.992482	-0.297537	0.232319	-1.201416	0.458496	0.554443
46617		11.431328	2.478937	-0.116919	0.947137	-0.220960	0.242110	-1.197021	0.465332	0.556396
46618		12.019103	2.877162	0.095327	0.600246	-0.141773	0.192523	-1.195068	0.471924	0.547607
46619		12.435268	2.449046	-0.104927	0.323341	-0.160876	0.096726	-1.201904	0.474121	0.551758
46620		12.952530	2.107855	-0.552817	0.141159	0.014549	-0.001266	-1.206299	0.471924	0.547607
46621		12.782149	1.234227	-0.667244	-0.263521	0.369670	-0.069739	-1.203857	0.469727	0.543213
46622		12.728030	0.295546	-0.288759	-0.444149	0.626315	-0.110775	-1.212891	0.469727	0.534424
46623		12.833256	-0.051708	0.577007	-0.492509	0.960769	-0.135721	-1.219238	0.456055	0.530518
46624		12.653597	0.118868	1.516721	-0.758502	1.337148	-0.170167	-1.232666	0.451416	0.508789
46625		12.328402	-0.057127	1.346518	-1.126595	1.728621	-0.254084	-1.241211	0.437988	0.493896
46626		12.391873	-0.609996	-1.670711	-0.707888	2.203186	-0.321126	-1.254150	0.428955	0.466064
46627		12.009350	-1.648128	-1.928075	-0.382765	2.498173	-0.261936	-1.271973	0.426514	0.437988
46628		13.088969	-3.595953	-1.963078	-0.372442	2.530855	-0.288912	-1.280762	0.419678	0.399170
46629		12.857760	-3.171841	-2.639404	0.020059	2.680263	-0.350324	-1.295898	0.408203	0.358398
46630		12.468728	-2.630153	-3.220724	-0.064670	2.677949	-0.389731	-1.302246	0.396973	0.326172
46631		12.054739	-1.454003	-2.973776	-0.225834	2.574889	-0.421542	-1.312988	0.390137	0.296143
46632		12.093147	-0.755790	-2.849334	-0.312110	2.538870	-0.453151	-1.323975	0.383301	0.261719
46633		12.058477	0.297954	-2.296744	-0.468813	2.619772	-0.486708	-1.328125	0.374268	0.231689
46634		11.758788	0.853965	-1.977430	-0.790038	2.696727	-0.516751	-1.340820	0.358398	0.191162
46635		11.504058	0.870119	-1.827643	-1.031146	2.709454	-0.531214	-1.342529	0.346924	0.161133
46636		11.584487	0.395042	-1.607630	-1.303452	2.658027	-0.442443	-1.346680	0.337891	0.129150
46637		11.241979	-0.978655	-1.323712	-1.447342	2.614613	-0.305973	-1.352783	0.322021	0.092773
46638		11.307128	-1.021312	-1.100537	-1.301752	2.526194	-0.180458	-1.350342	0.322021	0.062744
46639		11.207441	-1.789209	-1.484994	-0.983908	2.466283	-0.131127	-1.350098	0.319824	0.030518
46640		10.986114	-0.616955	-1.273296	-0.694718	2.420652	-0.098453	-1.358643	0.310791	0.000488
46641		10.577433	-0.171377	-1.311791	-0.642540	2.423810	-0.088187	-1.353760	0.306152	-0.029297
46642		10.703068	0.813279	-1.001109	-0.641919	2.391253	-0.078230	-1.348877	0.299316	-0.061523
46643		10.864149	0.410591	-1.272930	-0.799926	2.446039	-0.195335	-1.348633	0.297119	-0.091553
46644		10.324141	1.534282	-1.044852	-0.898993	2.517970	-0.314280	-1.345947	0.290283	-0.121338
46645		10.287820	2.201931	-0.750025	-1.319140	2.417067	-0.264190	-1.345459	0.281250	-0.157715
46646		9.952634	1.079227	-0.970874	-1.506801	2.364003	-0.213172	-1.338623	0.283447	-0.185547
46647		9.600488	0.526512	-1.233068	-1.539274	2.289645	-0.144216	-1.329346	0.283447	-0.213379
46648		8.648058	-0.262511	-0.973009	-1.547807	2.187745	-0.126407	-1.320313	0.281250	-0.234863
46649		8.278317	-1.087906	-0.590190	-1.483825	1.997644	-0.131643	-1.319824	0.276611	-0.258301
46650		8.495320	-0.247878	-0.348962	-1.435881	1.848845	-0.143059	-1.310791	0.278809	-0.279785
46651		8.552251	-0.536209	-0.670560	-1.545577	1.780832	-0.137881	-1.306152	0.276611	-0.301025
46652		8.297387	-0.087152	-0.749631	-1.613355	1.757348	-0.116561	-1.299316	0.278809	-0.320313
46653		7.555920	-0.037467	-0.345719	-1.517725	1.674093	-0.098194	-1.292480	0.278809	-0.337402
46654		6.966128	-0.198772	0.017145	-1.356469	1.511667	-0.063390	-1.290283	0.285645	-0.354736
46655		6.429091	-0.484726	0.256155	-1.082299	1.332532	-0.061935	-1.281250	0.287842	-0.369873
46656		5.981266	-0.599212	0.439277	-0.798124	1.121131	-0.072522	-1.276611	0.285645	-0.376221
46657		5.889895	-0.581786	0.473323	-0.582412	0.902387	-0.072783	-1.279053	0.287842	-0.384766
46658		5.715721	-0.686506	0.542209	-0.444706	0.701377	-0.083309	-1.276611	0.287842	-0.391357
46659		5.707083	-0.390614	0.647962	-0.381051	0.511668	-0.107921	-1.278809	0.283203	-0.395508
46660		5.939907	-0.378982	0.771222	-0.413476	0.320067	-0.116704	-1.272217	0.290039	-0.397705
46661		5.599929	-0.730909	0.895604	-0.398707	0.175059	-0.110361	-1.274170	0.281006	-0.395264
46662		5.542208	-0.757218	1.137553	-0.374546	-0.022673	-0.090272	-1.276611	0.287842	-0.395508
46663		5.609163	-0.816940	1.175856	-0.365340	-0.219336	-0.080240	-1.278809	0.287842	-0.391357
46664		5.686900	-0.735488	1.297080	-0.403686	-0.397279	-0.063790	-1.279053	0.290039	-0.385010
46665		5.615619	-0.641733	1.449509	-0.509324	-0.557186	-0.037330	-1.283691	0.294678	-0.376465
46666		5.587753	-0.674986	1.428470	-0.612457	-0.696241	-0.006642	-1.283936	0.296875	-0.363525
46667		5.746173	-0.930000	1.256190	-0.601839	-0.791157	0.031129	-1.295410	0.303711	-0.353271
46668		6.285694	-1.220195	1.272560	-0.504611	-0.857885	0.067986	-1.300049	0.303711	-0.338135
46669		6.897094	-1.305474	1.198102	-0.377454	-0.868826	0.080976	-1.304932	0.310303	-0.325439
46670		7.947506	-1.213262	1.659166	-0.224982	-0.875835	0.133057	-1.307617	0.321533	-0.312988
46671		8.555177	-0.917795	2.612580	-0.142123	-0.830285	0.178511	-1.314209	0.319336	-0.308838
46672		9.404147	-0.763681	3.929162	-0.147001	-0.774765	0.208969	-1.312256	0.323975	-0.293701
46673		10.437190	-0.808578	5.726780	-0.172992	-0.637389	0.193502	-1.314697	0.330566	-0.281006
46674		11.259516	-0.435889	7.524597	-0.332390	-0.391233	0.152087	-1.324219	0.337402	-0.277100
46675		11.607648	-0.593036	8.827248	-0.565608	-0.094860	0.120609	-1.326416	0.337402	-0.279297
46676		11.587848	-1.108425	9.592673	-0.518984	0.143622	0.108699	-1.324219	0.342041	-0.274902
46677		11.998737	-1.737019	9.763749	-0.367337	0.328551	0.128612	-1.322266	0.350830	-0.283691
46678		12.812243	-2.373658	9.330324	-0.233896	0.368317	0.137134	-1.320068	0.355469	-0.288086
46679		13.428999	-2.726007	8.409164	-0.153719	0.472133	0.067801	-1.320313	0.359863	-0.292480
46680		12.413128	-2.355598	7.434896	-0.206772	0.590387	-0.020214	-1.317871	0.355469	-0.294678
46681		10.793586	-1.820015	6.562847	-0.246059	0.533599	-0.085378	-1.317627	0.353271	-0.309570
46682		9.381611	-1.042352	6.499027	-0.346637	0.486931	-0.125175	-1.315186	0.348633	-0.315918
46683		8.215705	-0.844864	5.778308	-0.608720	0.441957	-0.172273	-1.310791	0.353271	-0.311523
46684		7.577747	-0.842211	4.042982	-0.856514	0.369242	-0.230955	-1.312988	0.348633	-0.326660
46685		6.744032	-0.995144	1.897158	-1.053602	0.302238	-0.265686	-1.315430	0.353271	-0.320313
46686		6.327290	-0.911643	-0.195017	-1.294195	0.142971	-0.266238	-1.317871	0.357666	-0.316162
46687		7.552659	-1.339896	-0.354992	-1.399165	-0.103032	-0.239209	-1.320068	0.357666	-0.313965
46688		9.708225	-1.960493	-0.351043	-1.146319	-0.469004	-0.248920	-1.320068	0.353271	-0.298828
46689		12.590868	-1.897678	0.373250	-0.550550	-0.722489	-0.299229	-1.324463	0.353271	-0.288086
46690		14.508394	-1.355468	2.841705	-0.438172	-0.733871	-0.316631	-1.331299	0.353271	-0.279785
46691		15.473539	-1.778821	4.550985	-0.500200	-0.721052	-0.269158	-1.329102	0.350830	-0.264648
46692		16.448549	-2.891876	4.255738	-0.221463	-0.646505	-0.172723	-1.331299	0.350830	-0.260254
46693		15.916444	-4.308646	4.262059	-0.216180	-0.325037	-0.121808	-1.324707	0.351074	-0.255859
46694		12.442202	-5.994280	4.846346	-0.314882	0.105393	-0.170952	-1.328857	0.342041	-0.257813
46695		8.114809	-5.563775	4.646117	-0.029425	0.143174	-0.170565	-1.322021	0.342041	-0.260010
46696		6.074704	-4.010016	1.682374	0.534274	-0.173187	-0.152224	-1.323975	0.328369	-0.259521
46697		5.345364	-1.364815	-1.309399	0.939980	-0.472425	-0.220306	-1.328369	0.328369	-0.253174
46698		5.501732	0.667198	-3.115016	0.882973	-0.687777	-0.350956	-1.325928	0.319336	-0.248779
46699		6.792947	2.703384	-2.769000	0.554474	-0.832554	-0.504049	-1.327881	0.308105	-0.231201
46700		8.031200	3.621610	-1.021861	0.091834	-0.916025	-0.627933	-1.327881	0.303711	-0.229004
46701		8.931597	4.486190	0.543567	0.121563	-1.026578	-0.698213	-1.336426	0.292480	-0.211670
46702		9.881406	5.406247	1.602458	0.403460	-1.086799	-0.706594	-1.341064	0.287842	-0.202881
46703		10.919447	5.482207	2.527182	0.364332	-1.008889	-0.637036	-1.342773	0.272217	-0.178955
46704		11.243626	3.652572	2.550965	-0.043473	-0.889134	-0.459568	-1.351807	0.272217	-0.168457
46705		11.384020	1.801333	1.701587	-0.410616	-0.914306	-0.294483	-1.354004	0.265381	-0.155273
46706		11.048190	-0.433042	0.513245	-0.479761	-0.889031	-0.174586	-1.351807	0.265381	-0.142334
46707		9.739433	-1.705826	-0.044101	-0.256658	-0.840960	-0.116946	-1.351807	0.263184	-0.127197
46708		8.298778	-2.636493	-0.319794	-0.011455	-0.878475	-0.180207	-1.351807	0.263184	-0.116455
46709		7.393352	-3.384927	-0.227483	0.170020	-1.008741	-0.295286	-1.356445	0.260986	-0.101563
46710		7.592305	-3.101536	0.194070	0.298954	-1.219641	-0.387398	-1.360840	0.251953	-0.082031
46711		8.132632	-2.781913	0.672934	0.408766	-1.405877	-0.392719	-1.363037	0.247559	-0.064697
46712		9.131595	-2.114253	0.708637	0.639327	-1.560749	-0.351415	-1.358154	0.234131	-0.044922
46713		9.511105	-1.282160	0.415122	1.026875	-1.568714	-0.304078	-1.362793	0.234131	-0.017090
46714		9.810211	1.491808	0.012301	1.294708	-1.573921	-0.284463	-1.365234	0.236328	0.000000
46715		9.797542	1.004008	-0.411226	1.105608	-1.486961	-0.222872	-1.363037	0.236328	0.015137
46716		9.599896	1.638842	-0.513950	1.428420	-1.435549	-0.199600	-1.356201	0.231934	0.032471
46717		9.407674	1.739228	-0.812225	1.364707	-1.395646	-0.187944	-1.358154	0.222900	0.052002
46718		9.096620	1.861491	-0.748036	1.371843	-1.395310	-0.182391	-1.356201	0.227539	0.071289
46719		9.005810	1.612255	-0.555669	1.200751	-1.404760	-0.181820	-1.358643	0.225342	0.090820
46720		9.140176	1.099876	-0.465643	1.121083	-1.448009	-0.188333	-1.354004	0.222900	0.110352
46721		9.161850	1.614119	-0.659639	1.107562	-1.454989	-0.204545	-1.361084	0.225342	0.125244
46722		9.837449	1.832821	-0.367870	0.920327	-1.561931	-0.137827	-1.356445	0.223145	0.144531
46723		10.296513	1.555735	-0.560700	0.912489	-1.514479	-0.088107	-1.352051	0.225342	0.166260
46724		9.849615	1.293516	-0.509769	0.947130	-1.392401	-0.035865	-1.352295	0.229980	0.181152
46725		10.135721	1.141494	-0.446795	0.882295	-1.370417	-0.065958	-1.343262	0.223145	0.202881
46726		10.455020	0.843436	-0.304808	0.789621	-1.299689	-0.069580	-1.348145	0.229980	0.219971
46727		10.231441	0.391773	-0.433129	0.936491	-1.172340	-0.089351	-1.345947	0.229980	0.232910
46728		9.940347	0.368453	-0.384141	1.059142	-1.111516	-0.100890	-1.341797	0.236816	0.254150
46729		9.657244	0.450233	-0.028846	1.127604	-1.109325	-0.064874	-1.339355	0.236816	0.258545
46730		9.314194	0.110950	-0.038509	1.225855	-1.119699	-0.026106	-1.331055	0.250488	0.277832
46731		9.271380	0.315916	-0.022198	1.306684	-1.135685	-0.020465	-1.335449	0.250488	0.290527
46732		9.254215	0.383319	-0.527123	1.223626	-1.098625	0.004057	-1.331055	0.252686	0.297119
46733		8.965627	0.808201	-1.163545	1.054156	-1.088386	0.026134	-1.322510	0.261719	0.318359
46734		9.048107	1.556367	-1.454201	0.794306	-1.126131	0.055523	-1.322510	0.261719	0.331299
46735		9.313256	1.711697	-1.748160	0.557493	-1.116653	0.048622	-1.320557	0.268555	0.346191
46736		9.400307	1.630011	-1.811897	0.436505	-1.062280	0.061576	-1.316162	0.270752	0.361328
46737		9.675801	1.230640	-1.560869	0.376517	-1.005733	0.060062	-1.312012	0.275391	0.369873
46738		9.956116	0.617974	-1.347809	0.381365	-0.944491	0.060782	-1.314453	0.277588	0.384766
46739		9.999727	0.041108	-1.262319	0.466132	-0.911180	0.074220	-1.307617	0.279785	0.393555
46740		9.788338	-0.387165	-1.113048	0.541076	-0.900591	0.093751	-1.299072	0.289063	0.412842
46741		9.568450	-0.678010	-1.032801	0.610817	-0.919591	0.114358	-1.294678	0.293457	0.416992
46742		9.676195	-0.679748	-1.081096	0.691667	-0.908612	0.125744	-1.292725	0.298096	0.429932
46743		9.954291	-0.574101	-1.108911	0.747399	-0.847722	0.121848	-1.290771	0.304932	0.447021
46744		10.160526	-0.357938	-1.257315	0.827002	-0.782290	0.105792	-1.286377	0.313721	0.446777
46745		10.428613	-0.221812	-1.391833	0.945737	-0.728809	0.097892	-1.284424	0.320557	0.455322
46746		10.561895	-0.037968	-1.263527	1.044329	-0.691439	0.084401	-1.282227	0.320557	0.461670
46747		10.540163	0.130601	-1.212768	1.074517	-0.660842	0.070797	-1.278076	0.332031	0.465820
46748		10.428294	0.203538	-1.133655	1.007252	-0.649143	0.062644	-1.273926	0.338623	0.472168
46749		10.261435	0.293997	-1.098797	0.967793	-0.658935	0.070978	-1.271973	0.347656	0.474121
46750		10.391582	0.421858	-1.217396	1.006610	-0.639284	0.086517	-1.267578	0.354492	0.478271
46751		10.596785	0.727912	-1.310057	1.061477	-0.589414	0.117190	-1.268066	0.363525	0.484619
46752		10.566017	0.924160	-1.428980	1.064124	-0.561990	0.152004	-1.261475	0.368164	0.486816
46753		10.465206	0.925329	-1.321136	1.006702	-0.557903	0.181667	-1.259521	0.379395	0.495117
46754		10.456721	0.908725	-1.048151	0.936907	-0.547846	0.189409	-1.252930	0.383789	0.492920
46755		10.472825	0.950071	-0.661739	0.932418	-0.523288	0.182531	-1.257813	0.392822	0.499023
46756		10.455377	1.204299	-0.289269	0.946135	-0.498262	0.204372	-1.249023	0.401855	0.501221
46757		10.500379	1.994479	-0.411949	1.020874	-0.472535	0.190818	-1.251709	0.413086	0.498779
46758		11.699536	2.906479	-0.446886	1.022765	-0.406803	0.170419	-1.244873	0.415527	0.500977
46759		12.274330	3.458374	-0.341229	0.771949	-0.316848	0.136495	-1.242676	0.419922	0.500977
46760		12.462401	2.586696	-0.259970	0.479681	-0.309469	0.078683	-1.242920	0.422119	0.505127
46761		12.649478	1.617460	-0.059082	0.241525	-0.217464	0.040784	-1.247559	0.428955	0.511230
46762		12.475716	1.024718	-0.246413	-0.075721	0.049738	0.038622	-1.249756	0.426758	0.507080
46763		12.347055	0.373621	-0.379587	-0.250348	0.282352	0.040869	-1.247314	0.422119	0.500732
46764		12.479297	-0.236716	0.257299	-0.278429	0.467631	0.037015	-1.251953	0.424316	0.494141
46765		12.766323	-0.654958	1.011020	-0.294795	0.666162	0.036320	-1.256104	0.417725	0.483398
46766		12.938242	-0.592844	1.688272	-0.390599	0.938944	0.048705	-1.262939	0.417480	0.472656
46767		12.875994	-0.718764	1.719854	-0.613419	1.297618	0.044564	-1.269531	0.417480	0.457520
46768		12.208784	-0.756407	0.806103	-0.748170	1.723811	-0.005700	-1.280518	0.406250	0.436035
46769		11.550264	-1.077167	-0.313770	-0.580078	2.161842	-0.064839	-1.286865	0.401611	0.406006
46770		10.642989	-2.197922	-0.237441	-0.514438	2.398181	-0.061485	-1.295654	0.399414	0.373535
46771		10.870135	-2.876164	-0.783683	-0.156507	2.534137	-0.072667	-1.304199	0.390137	0.339355
46772		10.455335	-2.239576	-1.496847	0.320853	2.639995	-0.135904	-1.317627	0.387939	0.309082
46773		10.924222	-1.280680	-1.895498	0.470193	2.536683	-0.201373	-1.328613	0.387695	0.265869
46774		11.520785	-0.280134	-2.040763	0.353776	2.414780	-0.268191	-1.330566	0.381104	0.235840
46775		12.098735	0.756635	-2.266406	0.082805	2.389421	-0.257720	-1.339355	0.378662	0.205566
46776		12.094098	1.790948	-2.128723	-0.329540	2.465977	-0.258537	-1.343262	0.367432	0.165039
46777		11.954336	1.627164	-1.935990	-0.833278	2.466676	-0.312357	-1.349854	0.367188	0.136963
46778		11.742548	0.437889	-1.988125	-1.194009	2.445605	-0.356738	-1.351318	0.349121	0.107178
46779		11.903177	-0.528457	-2.239803	-1.354666	2.425743	-0.332642	-1.360107	0.344727	0.077148
46780		11.418857	-1.688173	-2.160810	-1.455715	2.498492	-0.229809	-1.355225	0.340088	0.047119
46781		11.192577	-1.826567	-1.409917	-1.370089	2.460793	-0.108290	-1.357178	0.333252	0.019287
46782		11.256598	-1.833924	-0.872796	-1.223229	2.373763	-0.001393	-1.359375	0.333252	-0.010742
46783		11.409735	-1.556597	-0.383477	-0.901929	2.225613	0.069983	-1.359131	0.330811	-0.038574
46784		11.153384	-0.851436	-0.280647	-0.606057	2.126588	0.149497	-1.352051	0.326416	-0.064209
46785		11.200023	-1.024054	-0.149214	-0.393091	2.033057	0.084863	-1.347412	0.328613	-0.098633
46786		10.080107	-0.790472	-0.498362	-0.349973	2.058734	-0.007874	-1.342773	0.330811	-0.122314
46787		9.103361	-0.427020	-0.677115	-0.270180	2.061537	-0.074860	-1.344727	0.321777	-0.145752
46788		9.047534	1.688890	-0.118014	-0.447203	1.908786	-0.049833	-1.337402	0.314941	-0.169189
46789		9.628293	1.376395	-0.478595	-0.866517	1.880927	0.013625	-1.335205	0.321777	-0.195068
46790		9.433166	0.126706	-0.662381	-0.979522	1.871843	0.002747	-1.326172	0.319580	-0.220703
46791		9.218140	-0.096319	-0.650668	-1.006883	1.780936	-0.055518	-1.321289	0.314941	-0.239990
46792		9.170168	0.313561	-0.832158	-1.185758	1.714719	-0.071922	-1.319092	0.317139	-0.252930
46793		8.555078	-0.115780	-1.089425	-1.352910	1.715362	-0.069313	-1.314453	0.319336	-0.280762
46794		8.248144	0.192079	-0.768307	-1.436262	1.670295	-0.025661	-1.310059	0.321777	-0.291504
46795		7.959172	0.096981	-0.484982	-1.467066	1.627289	0.027285	-1.303223	0.328369	-0.308838
46796		7.784771	0.294827	-0.135976	-1.456030	1.572581	0.048662	-1.296143	0.321777	-0.323486
46797		7.435910	0.117573	0.137542	-1.482430	1.488042	0.075138	-1.291992	0.333008	-0.341064
46798		7.228879	-0.176692	0.472632	-1.388111	1.371166	0.097820	-1.285156	0.335205	-0.349609
46799		7.229003	-0.445673	0.752735	-1.245430	1.238076	0.120465	-1.276367	0.342041	-0.366699
46800		7.517135	-0.420482	0.726987	-1.163605	1.093688	0.066799	-1.276367	0.346436	-0.366943
46801		7.406200	-0.826584	0.655221	-1.049382	0.996128	0.024018	-1.271973	0.350830	-0.379883
46802		7.136555	-0.892680	0.870187	-0.927173	0.870508	-0.024995	-1.271973	0.350830	-0.386230
46803		6.855243	-0.988903	1.004573	-0.835416	0.712422	-0.068372	-1.265137	0.353271	-0.388428
46804		6.446735	-1.145532	0.954888	-0.688210	0.564482	-0.112618	-1.267578	0.353271	-0.392578
46805		6.284548	-1.305706	1.156061	-0.552525	0.405263	-0.132311	-1.267578	0.355469	-0.394775
46806		6.079552	-1.409740	1.327053	-0.415200	0.241952	-0.160813	-1.262939	0.355469	-0.392578
46807		5.962902	-1.644886	1.561978	-0.293337	0.082722	-0.180647	-1.270020	0.357666	-0.392822
46808		5.987603	-1.746073	1.952575	-0.164706	-0.090370	-0.208493	-1.276611	0.355469	-0.392822
46809		6.423522	-1.737239	2.070479	-0.082257	-0.269922	-0.223277	-1.276611	0.355469	-0.384277
46810		6.808415	-1.620866	2.138490	-0.041588	-0.408838	-0.199949	-1.281006	0.348633	-0.379883
46811		7.066207	-1.350871	2.495713	-0.130103	-0.487404	-0.162722	-1.287598	0.346436	-0.373535
46812		7.345915	-1.296187	2.853997	-0.280426	-0.511131	-0.114686	-1.294922	0.355469	-0.369385
46813		7.760105	-1.322836	3.248112	-0.284283	-0.499052	-0.088435	-1.288086	0.357666	-0.358643
46814		7.861026	-1.127059	3.621362	-0.101503	-0.462553	-0.094664	-1.294678	0.350830	-0.347900
46815		8.517088	-0.827823	4.109787	0.077271	-0.458855	-0.097356	-1.297363	0.357666	-0.348145
46816		8.531557	-0.496037	4.608722	0.148544	-0.405757	-0.088173	-1.301758	0.353271	-0.337402
46817		8.560295	-0.514941	5.099335	0.078884	-0.370825	-0.052368	-1.306152	0.353271	-0.337402
46818		8.723259	-0.822275	5.260885	-0.061912	-0.334614	-0.019790	-1.308594	0.353271	-0.331055
46819		8.734072	-1.156216	5.349185	-0.210902	-0.284414	-0.001761	-1.310791	0.353271	-0.328857
46820		9.139790	-1.501194	5.530663	-0.330371	-0.262942	-0.000362	-1.311035	0.362305	-0.316162
46821		9.663047	-1.534109	5.687496	-0.402145	-0.199908	0.000627	-1.315674	0.362061	-0.313965
46822		9.769899	-1.414416	6.016206	-0.489681	-0.123368	-0.010224	-1.311279	0.364502	-0.316162
46823		9.846900	-1.576973	6.496603	-0.609620	-0.069091	-0.031585	-1.311279	0.368896	-0.312012
46824		9.702371	-1.935504	6.825126	-0.592474	-0.125055	-0.086022	-1.313965	0.373535	-0.303467
46825		9.754960	-1.688064	6.599468	-0.430204	-0.278371	-0.145842	-1.315918	0.366699	-0.296875
46826		10.269386	-1.662526	6.219797	-0.259723	-0.354187	-0.195013	-1.320801	0.373535	-0.290771
46827		10.317069	-1.453350	5.992029	-0.168522	-0.297452	-0.244176	-1.318115	0.366699	-0.286377
46828		10.129268	-1.318113	5.844533	-0.308310	-0.248698	-0.291126	-1.327393	0.366699	-0.286377
46829		9.763509	-1.455195	5.465357	-0.478810	-0.232057	-0.333748	-1.326904	0.357666	-0.283936
46830		9.180671	-1.598634	5.448233	-0.567627	-0.202448	-0.365184	-1.331543	0.355469	-0.277588
46831		8.516904	-1.832064	4.922263	-0.688408	-0.189975	-0.415239	-1.331299	0.350830	-0.270996
46832		8.758290	-2.175504	4.050882	-0.788572	-0.213537	-0.423561	-1.335938	0.350830	-0.260254
46833		9.653779	-2.698679	2.977007	-0.851634	-0.367058	-0.388299	-1.335693	0.346436	-0.255859
46834		11.879508	-3.405095	2.102786	-0.732912	-0.661917	-0.301273	-1.342773	0.353271	-0.247559
46835		14.594278	-3.356991	2.528897	-0.477214	-0.748967	-0.182237	-1.340332	0.346436	-0.238770
46836		16.032009	-2.560613	4.030213	-0.477940	-0.623900	-0.018058	-1.340820	0.353271	-0.223877
46837		15.977729	-2.341841	3.830803	-0.470888	-0.535929	0.120780	-1.342773	0.348633	-0.215332
46838		14.804228	-2.096253	3.217349	-0.532751	-0.472237	0.142973	-1.340576	0.348633	-0.213135
46839		12.413428	-3.263413	3.795464	-0.741718	-0.175509	0.054658	-1.338623	0.355469	-0.208984
46840		8.741921	-4.334673	3.873783	-0.541950	0.225777	-0.038659	-1.340820	0.351074	-0.206543
46841		5.776611	-4.022094	2.648096	0.005314	0.328822	-0.174444	-1.335938	0.342041	-0.210693
46842		5.102516	-3.125114	0.490902	0.597881	0.004557	-0.311166	-1.333740	0.344238	-0.212891
46843		5.379198	-1.738613	-1.503492	1.098967	-0.497327	-0.454489	-1.333496	0.333008	-0.203857
46844		6.126942	0.200486	-2.863481	1.430137	-0.959872	-0.586931	-1.337402	0.314941	-0.201416
46845		7.378916	2.548003	-2.472964	1.273878	-1.317041	-0.699410	-1.339355	0.308350	-0.181885
46846		8.336666	4.255955	-1.264693	0.743399	-1.439763	-0.719115	-1.341553	0.301514	-0.164551
46847		9.287883	5.377405	0.396425	0.311323	-1.426219	-0.646162	-1.350342	0.290283	-0.143066
46848		10.258703	5.576226	1.558329	-0.013604	-1.289524	-0.506556	-1.354736	0.281250	-0.123535
46849		11.238318	3.960529	1.574614	-0.178901	-1.093935	-0.331350	-1.352539	0.281250	-0.106201
46850		11.611546	2.099789	1.266089	-0.205681	-0.896090	-0.196407	-1.354736	0.279053	-0.099854
46851		11.122049	0.420209	1.423680	-0.273904	-0.707824	-0.128727	-1.354736	0.274414	-0.091064
46852		9.795201	-1.249361	1.468321	-0.221071	-0.568907	-0.113581	-1.354736	0.274658	-0.080322
46853		8.554929	-1.476918	1.374742	0.067652	-0.636964	-0.167049	-1.354736	0.272217	-0.067383
46854		7.422196	-2.336698	1.074156	0.322588	-0.741791	-0.204535	-1.363770	0.270020	-0.058838
46855		7.442404	-1.707027	0.773538	0.573083	-0.963866	-0.241670	-1.356934	0.265625	-0.039307
46856		8.203573	-1.325491	0.522642	0.640179	-1.189355	-0.297440	-1.359131	0.263428	-0.028564
46857		9.198757	-0.862224	0.341610	0.689486	-1.322177	-0.343997	-1.365967	0.258789	-0.011230
46858		9.882074	-0.791556	0.380420	0.658703	-1.357677	-0.371531	-1.359131	0.256592	0.006104
46859		10.253322	0.188045	0.370130	0.675763	-1.375387	-0.366729	-1.361328	0.250000	0.023438
46860		10.005961	-0.056859	-0.198059	0.815481	-1.310856	-0.261337	-1.358887	0.243164	0.038818
46861		9.746493	0.827286	-0.286580	1.095950	-1.326122	-0.202967	-1.358887	0.240967	0.060303
46862		9.375634	1.309305	-0.351830	1.068039	-1.325504	-0.132328	-1.361328	0.243164	0.072998
46863		9.382075	2.222388	-0.309099	1.032345	-1.368583	-0.116532	-1.359131	0.243164	0.092529
46864		9.260561	2.038878	-0.426114	0.882006	-1.385034	-0.093451	-1.359375	0.245605	0.107422
46865		9.151632	1.757109	-0.703358	0.912299	-1.423343	-0.097312	-1.352539	0.247803	0.122559
46866		9.043632	0.875173	-1.014733	0.904609	-1.477438	-0.127530	-1.354736	0.241211	0.150635
46867		8.848984	0.191634	-1.199020	0.995830	-1.553600	-0.169478	-1.353027	0.247803	0.176270
46868		9.099351	0.447381	-1.234869	0.959900	-1.668453	-0.159072	-1.346191	0.243408	0.191650
46869		9.669588	-0.807105	-1.666471	1.104663	-1.741633	-0.236592	-1.348389	0.243408	0.217285
46870		9.844153	-0.233735	-1.336717	1.243580	-1.725989	-0.228287	-1.341797	0.245850	0.230225
46871		9.931271	0.058357	-1.004989	1.220531	-1.713979	-0.146051	-1.335205	0.245850	0.256348
46872		10.218672	0.165043	-0.942882	1.206037	-1.639466	-0.066196	-1.335693	0.257080	0.273193
46873		10.645278	1.082392	-0.456049	1.218012	-1.495713	0.019023	-1.329102	0.259521	0.299072
46874		10.787882	1.650756	-0.105356	1.182717	-1.377292	0.021935	-1.327148	0.266113	0.311768
46875		10.657289	1.148500	-0.322756	1.232344	-1.169413	0.059549	-1.324951	0.266113	0.322510
46876		10.152297	0.739054	-0.329176	1.253845	-0.913518	0.042228	-1.318359	0.272949	0.331055
46877		9.481855	0.481096	-0.401416	1.130583	-0.908626	0.001394	-1.316406	0.279785	0.339600
46878		9.132182	0.616915	-0.859794	1.100881	-0.965742	-0.002536	-1.312256	0.286621	0.345947
46879		8.845778	0.714296	-1.393191	1.100881	-1.030840	0.021510	-1.312500	0.291016	0.365234
46880		8.903932	0.674714	-1.812927	1.071851	-1.105057	0.065273	-1.299316	0.300293	0.375977
46881		9.282964	0.579246	-2.093075	0.986991	-1.140843	0.109062	-1.301758	0.309082	0.390869
46882		9.921773	0.435201	-2.300594	0.904292	-1.099168	0.138307	-1.288330	0.306885	0.395264
46883		10.119207	0.274783	-2.248763	0.833567	-1.004785	0.135925	-1.288574	0.315918	0.412354
46884		10.116051	-0.033411	-2.009058	0.799118	-0.955965	0.116730	-1.289063	0.324951	0.422852
46885		10.204510	-0.532523	-1.648277	0.851603	-0.974043	0.099418	-1.284912	0.333984	0.429199
46886		10.400129	-0.811501	-1.307179	0.934086	-1.017142	0.089916	-1.280273	0.331787	0.446533
46887		10.573929	-0.906190	-0.863560	1.022850	-1.049761	0.088324	-1.283203	0.347656	0.454590
46888		10.488604	-0.827548	-0.080772	1.133533	-1.049857	0.080412	-1.265381	0.356689	0.458984
46889		10.442793	-0.435786	0.991432	1.212240	-1.033482	0.077632	-1.260986	0.361328	0.469727
46890		10.247691	0.314579	1.628669	1.348342	-0.955768	0.089430	-1.256836	0.370361	0.480225
46891		9.810007	1.304121	1.411917	1.497476	-0.845392	0.117779	-1.252686	0.377197	0.484619
46892		9.890899	1.930429	0.422213	1.585956	-0.727706	0.185687	-1.248535	0.390625	0.484375
46893		10.226555	2.584313	-0.650799	1.513265	-0.645242	0.263569	-1.249023	0.401855	0.490479
46894		10.851473	3.011186	-1.237284	1.224443	-0.633943	0.321876	-1.244629	0.408691	0.492432
46895		11.557804	3.050627	-1.146847	0.876415	-0.668792	0.336673	-1.238281	0.422119	0.490234
46896		11.935580	2.826564	-0.745871	0.596553	-0.640928	0.305764	-1.233887	0.426758	0.505127
46897		11.947206	2.344641	-0.006933	0.419391	-0.551942	0.229975	-1.227539	0.435791	0.507080
46898		11.400891	1.625135	0.833563	0.327238	-0.443696	0.167297	-1.232178	0.437988	0.513428
46899		10.711000	1.088947	0.843382	0.374812	-0.371723	0.135637	-1.229980	0.437988	0.513428
46900		11.592895	1.161757	0.600051	0.488973	-0.280345	0.112122	-1.225342	0.440186	0.507080
46901		12.404286	1.784380	0.624534	0.476562	-0.129478	0.079882	-1.228027	0.453857	0.508789
46902		12.585549	1.236620	0.762305	0.403979	-0.005580	0.029309	-1.228027	0.449219	0.506836
46903		13.016712	0.672282	1.101991	0.317197	0.157694	-0.036620	-1.232422	0.447021	0.504639
46904		13.398329	0.311373	1.896495	-0.038668	0.436682	-0.048751	-1.239258	0.447021	0.495850
46905		13.250759	-0.133958	1.822343	-0.239164	0.768730	-0.009998	-1.243408	0.442383	0.485352
46906		12.836300	-0.016161	2.015223	-0.231359	1.138429	0.034445	-1.247803	0.442383	0.472168
46907		11.886782	0.473658	2.345888	-0.491235	1.521019	0.019196	-1.254395	0.437744	0.455078
46908		11.200162	1.140630	0.278443	-0.596482	1.984983	-0.073068	-1.274414	0.430908	0.424805
46909		10.234829	1.375507	-1.698393	-0.286296	2.402651	-0.071233	-1.285400	0.424072	0.390381
46910		10.265989	0.097271	-1.548716	-0.389783	2.559215	-0.041271	-1.296143	0.417236	0.355957
46911		11.089812	-1.303474	-1.839095	-0.414053	2.626930	-0.083877	-1.300537	0.415039	0.321533
46912		12.015979	-1.512657	-3.175113	-0.271917	2.589583	-0.142937	-1.311523	0.414795	0.289063
46913		12.354246	-1.790666	-3.461869	-0.645196	2.561580	-0.232114	-1.320068	0.405762	0.261230
46914		12.684454	-2.290648	-2.978051	-1.027200	2.538343	-0.313548	-1.328857	0.398926	0.222656
46915		12.832304	-2.071416	-2.606102	-0.986513	2.546445	-0.331635	-1.334717	0.380859	0.194824
46916		12.709075	-1.685155	-2.341457	-0.909556	2.581005	-0.332799	-1.336670	0.374023	0.158447
46917		12.622474	-1.514817	-2.293431	-0.897107	2.641997	-0.334718	-1.345459	0.369629	0.128418
46918		12.549810	-1.919573	-2.380860	-1.029299	2.687868	-0.366847	-1.349365	0.360352	0.089844
46919		12.252077	-2.133678	-2.179931	-1.183877	2.689298	-0.330165	-1.353516	0.353516	0.062012
46920		12.638659	-3.013022	-2.309341	-1.158407	2.614543	-0.236726	-1.359863	0.344482	0.025391
46921		12.643638	-2.731311	-1.963565	-0.778390	2.589903	-0.180718	-1.350586	0.340088	-0.006592
46922		12.746487	-1.537243	-2.014885	-0.444118	2.504290	-0.142466	-1.354492	0.333252	-0.045166
46923		12.433094	-0.901900	-2.190536	-0.219282	2.462964	-0.141382	-1.347412	0.328613	-0.077148
46924		11.478479	-1.194125	-2.132694	-0.107852	2.428909	-0.183444	-1.351807	0.328613	-0.113770
46925		10.568228	-1.092621	-1.423934	-0.103431	2.379498	-0.240549	-1.344482	0.314941	-0.145508
46926		10.321703	1.101274	-1.294888	-0.181607	2.434146	-0.256906	-1.332764	0.308350	-0.173340
46927		8.963545	0.315781	-0.771499	-0.705124	2.391576	-0.173537	-1.327881	0.303711	-0.209717
46928		8.957145	0.168082	-0.907068	-0.853419	2.307312	-0.070579	-1.323242	0.308105	-0.241943
46929		8.602381	0.068711	-1.466618	-0.867546	2.290232	-0.057616	-1.318604	0.303711	-0.263184
46930		8.436039	0.046366	-1.430321	-0.959479	2.180861	-0.040295	-1.316162	0.308105	-0.291260
46931		8.302797	0.417364	-1.606551	-1.020997	2.081545	-0.064639	-1.302490	0.301514	-0.308105
46932		8.040089	0.756805	-1.447718	-1.273778	2.003004	-0.046383	-1.291260	0.308105	-0.338135
46933		7.504570	0.072771	-1.536405	-1.459745	1.899748	-0.026465	-1.281982	0.305908	-0.350830
46934		7.147155	0.658474	-1.225864	-1.553231	1.754798	-0.032441	-1.284424	0.314941	-0.368408
46935		6.856780	0.764767	-0.995625	-1.728979	1.574701	-0.003675	-1.270996	0.319336	-0.385498
46936		6.722402	0.635124	-0.620264	-1.736525	1.427250	0.013117	-1.273193	0.321533	-0.394043
46937		6.690012	0.286354	-0.109231	-1.616283	1.271863	-0.002191	-1.264404	0.330566	-0.400635
46938		6.435422	-0.332606	0.329171	-1.328919	1.122404	-0.019256	-1.260010	0.333008	-0.411377
46939		6.183806	-0.665966	0.549784	-0.986485	0.933968	-0.035817	-1.257813	0.337402	-0.422363
46940		5.882228	-1.246851	0.718762	-0.672527	0.743066	-0.076676	-1.255371	0.333008	-0.432861
46941		5.699759	-1.541646	1.174953	-0.460279	0.541817	-0.124150	-1.253174	0.339600	-0.433105
46942		5.616765	-1.765835	1.595111	-0.326356	0.306898	-0.164959	-1.257813	0.337402	-0.428711
46943		5.665773	-1.546057	1.872458	-0.179895	0.068825	-0.198872	-1.255371	0.333008	-0.428467
46944		5.841113	-1.474183	1.925847	-0.022433	-0.152344	-0.238290	-1.252930	0.333008	-0.435059
46945		5.951235	-1.367261	1.853631	0.136597	-0.330196	-0.277810	-1.264160	0.328369	-0.422119
46946		5.892396	-1.106942	2.077692	0.253796	-0.494726	-0.302957	-1.266602	0.326172	-0.413574
46947		5.775208	-0.964875	2.529569	0.263579	-0.629452	-0.311993	-1.273193	0.321533	-0.406982
46948		5.416161	-0.871328	3.035213	0.234077	-0.786959	-0.313734	-1.279785	0.319336	-0.400635
46949		5.573133	-0.739715	3.329094	0.217405	-1.025300	-0.295995	-1.291260	0.317139	-0.385742
46950		6.151328	-0.636345	3.501671	0.257090	-1.228308	-0.252142	-1.293457	0.312500	-0.370605
46951		6.707404	-0.413246	3.678392	0.310344	-1.322556	-0.193543	-1.300293	0.310303	-0.351318
46952		7.400701	-0.309092	3.932186	0.309978	-1.338835	-0.135567	-1.304688	0.310303	-0.338379
46953		8.379051	-0.210396	4.142593	0.274434	-1.298816	-0.030723	-1.311523	0.305908	-0.321289
46954		9.534742	-0.020199	4.750576	0.117927	-1.214075	0.031863	-1.321045	0.314941	-0.306641
46955		10.383640	0.034842	5.510496	-0.239642	-0.979969	0.056791	-1.323242	0.317139	-0.293701
46956		11.202615	-0.626263	5.613202	-0.667886	-0.696803	0.049178	-1.325928	0.323975	-0.281006
46957		11.854791	-0.935241	5.737460	-0.916421	-0.360635	0.019197	-1.326172	0.328369	-0.276855
46958		12.698831	-1.491805	6.692580	-1.135807	-0.006201	-0.004563	-1.330811	0.335205	-0.277100
46959		13.759204	-2.110592	7.775260	-1.287465	0.358872	0.033355	-1.333252	0.339600	-0.270752
46960		14.083230	-2.264550	8.972845	-1.311754	0.617042	0.063807	-1.326416	0.342041	-0.275146
46961		13.262412	-1.969588	9.203834	-1.220854	0.738763	-0.002618	-1.326660	0.348633	-0.281738
46962		11.388341	-1.785449	8.275619	-0.892903	0.675692	-0.103709	-1.328857	0.348633	-0.294678
46963		9.278721	-1.280394	7.441649	-0.583274	0.481319	-0.187054	-1.324219	0.346436	-0.294434
46964		7.469597	-2.033401	6.656086	-0.474691	0.302654	-0.251373	-1.324219	0.346436	-0.302979
46965		6.293242	-2.585123	6.159898	-0.209370	0.197132	-0.321576	-1.326416	0.341797	-0.307373
46966		5.217889	-2.752609	4.688004	-0.146248	0.000287	-0.363382	-1.328613	0.337402	-0.300781
46967		5.583440	-2.853447	2.625878	-0.333131	-0.384898	-0.349161	-1.330322	0.326172	-0.291992
46968		7.636497	-3.146649	0.258454	-0.579220	-0.836122	-0.300480	-1.334961	0.328369	-0.281250
46969		11.149512	-3.591111	-2.244623	-0.467400	-1.168832	-0.214811	-1.337646	0.335205	-0.260010
46970		14.950172	-2.143362	-2.213361	-0.393728	-1.081714	-0.082979	-1.340088	0.335205	-0.244873
46971		17.037273	-1.108079	-0.506667	-0.809068	-0.764120	0.048911	-1.342529	0.342041	-0.230225
46972		18.481291	-0.791800	1.012269	-0.863237	-0.482337	0.129748	-1.337891	0.333008	-0.227783
46973		17.904970	-0.848114	2.134153	-0.637374	-0.230214	0.126428	-1.340576	0.348633	-0.228027
46974		14.683191	-2.197106	4.213678	-0.685375	0.036779	0.002685	-1.331299	0.339844	-0.221191
46975		9.923559	-3.871081	5.430846	-0.341334	0.233910	-0.164039	-1.331055	0.333008	-0.218994
46976		6.117729	-3.157754	4.453585	0.571212	-0.151083	-0.300170	-1.337646	0.328369	-0.225342
46977		4.692155	-1.421918	1.767778	1.138533	-0.750021	-0.391251	-1.337646	0.326172	-0.212402
46978		4.272223	0.035527	-1.170518	1.345209	-1.156731	-0.498010	-1.332520	0.305908	-0.201172
46979		4.634668	1.346507	-3.274742	1.152438	-1.402168	-0.606356	-1.339111	0.301514	-0.186035
46980		6.130608	2.662189	-4.304436	0.654010	-1.502207	-0.639786	-1.343262	0.285645	-0.168457
46981		8.148405	3.237213	-4.150452	0.168817	-1.506584	-0.588990	-1.345703	0.283447	-0.142822
46982		9.940826	3.449714	-2.606075	0.095515	-1.450053	-0.467991	-1.349854	0.274414	-0.125488
46983		11.541144	3.895398	-0.347341	0.228854	-1.248467	-0.353157	-1.350098	0.276855	-0.108154
46984		12.644737	4.219161	1.237191	0.132496	-0.984671	-0.246303	-1.354492	0.270020	-0.097412
46985		12.914364	3.420454	1.510887	-0.172051	-0.725314	-0.130073	-1.352051	0.265625	-0.086426
46986		11.424901	0.974025	1.484941	-0.443884	-0.497221	-0.004276	-1.354492	0.270020	-0.082275
46987		10.089733	-0.218011	1.537327	-0.595565	-0.515640	0.005971	-1.356934	0.267822	-0.065186
46988		8.537437	-1.686490	1.364183	-0.523786	-0.640010	-0.036739	-1.354736	0.267822	-0.054199
46989		7.364174	-2.373931	1.013454	-0.200206	-0.864896	-0.133255	-1.354736	0.267822	-0.034912
46990		6.881203	-2.715631	0.181829	0.272330	-1.160577	-0.275366	-1.361328	0.258789	-0.024170
46991		7.397738	-2.244014	-0.236627	0.768648	-1.407063	-0.368290	-1.356934	0.258789	-0.004639
46992		8.577793	-1.780175	-0.227711	1.054089	-1.575529	-0.401907	-1.356934	0.254395	0.014893
46993		9.380769	-1.267878	-0.190892	1.112391	-1.577759	-0.326994	-1.365967	0.254395	0.036133
46994		9.998550	-0.586079	-0.079166	1.311619	-1.590211	-0.268519	-1.356934	0.250000	0.051514
46995		10.143303	0.549408	-0.117938	1.375531	-1.542158	-0.224281	-1.356934	0.247803	0.072998
46996		9.899797	0.911489	-0.960744	1.280132	-1.404234	-0.170774	-1.354492	0.240967	0.092529
46997		9.617367	1.365845	-1.300231	1.313790	-1.316312	-0.133571	-1.350342	0.247803	0.103271
46998		9.425926	1.958318	-1.497160	1.230159	-1.283225	-0.120096	-1.352783	0.250000	0.124756
46999		9.230462	2.208491	-1.454356	0.994161	-1.296549	-0.149959	-1.348145	0.247803	0.146240
47000		9.032124	2.220183	-1.279489	0.695029	-1.347714	-0.198570	-1.348145	0.241211	0.159424
47001		9.186297	2.221504	-1.060997	0.401818	-1.472230	-0.205213	-1.343750	0.241211	0.180908
47002		9.741066	2.029862	-1.179007	0.180663	-1.489274	-0.151356	-1.341797	0.248047	0.202393
47003		10.233577	0.731437	-1.117590	0.194925	-1.470341	-0.157556	-1.346191	0.241211	0.223877
47004		10.152697	0.676675	-0.577070	0.339224	-1.373147	-0.148571	-1.343994	0.243408	0.241211
47005		10.373505	0.964421	0.188276	0.493244	-1.335503	-0.090264	-1.337402	0.241211	0.264893
47006		10.259170	0.302318	0.197877	0.739367	-1.191959	-0.035741	-1.333252	0.252686	0.271240
47007		9.906193	-0.045647	0.242348	0.966459	-0.980792	-0.041572	-1.333252	0.250488	0.284180
47008		9.749505	-0.002188	0.479625	0.983027	-0.932470	-0.050976	-1.326660	0.254883	0.301270
47009		9.615040	-0.033925	0.311083	0.929862	-0.856204	-0.049524	-1.331299	0.257080	0.307617
47010		9.603919	0.110248	-0.052290	0.847263	-0.901486	-0.072822	-1.320068	0.259521	0.318604
47011		9.825838	0.542737	-0.184365	0.723695	-0.959841	-0.089018	-1.320313	0.263916	0.329102
47012		9.784793	0.653403	-0.301363	0.593591	-0.963588	-0.089975	-1.322510	0.259521	0.342041
47013		9.577081	0.846868	-0.808097	0.602108	-0.938070	-0.057513	-1.313721	0.266357	0.357178
47014		9.473566	1.051449	-1.460068	0.670174	-0.919240	-0.032192	-1.311768	0.270752	0.372070
47015		9.285086	1.082040	-1.905210	0.691741	-0.910260	0.012957	-1.307129	0.268555	0.376465
47016		9.170227	1.004699	-2.209571	0.676415	-0.911290	0.044555	-1.298584	0.277588	0.387207
47017		9.174079	0.756428	-2.269852	0.623277	-0.939355	0.072468	-1.303223	0.284424	0.397705
47018		9.321354	0.503504	-2.014374	0.623250	-0.951027	0.088290	-1.294678	0.291260	0.410645
47019		9.599626	0.303925	-1.517714	0.674284	-0.949346	0.097269	-1.285645	0.291260	0.425781
47020		9.906782	0.164796	-1.013663	0.752663	-0.937132	0.114492	-1.288086	0.295898	0.436523
47021		9.973743	0.210248	-0.826060	0.783844	-0.911600	0.137774	-1.279297	0.302490	0.447266
47022		10.005328	0.449625	-0.969885	0.685593	-0.917132	0.161366	-1.279541	0.311523	0.451172
47023		10.051698	0.267320	-1.567679	0.612542	-0.945529	0.171749	-1.275391	0.318359	0.464111
47024		10.099611	0.253222	-1.924181	0.590988	-0.953149	0.181920	-1.269043	0.327393	0.472656
47025		10.199737	0.020611	-1.928328	0.625962	-0.916241	0.185381	-1.267090	0.336426	0.487549
47026		10.387624	-0.149699	-1.543864	0.662526	-0.852121	0.181381	-1.262695	0.341064	0.496094
47027		10.486814	-0.392529	-0.999176	0.683591	-0.786287	0.169109	-1.260742	0.345459	0.500244
47028		10.612125	-0.388181	-0.555501	0.722346	-0.723311	0.158736	-1.249512	0.345703	0.506836
47029		10.742713	-0.485998	-0.553743	0.818202	-0.644231	0.159049	-1.254395	0.359131	0.517090
47030		10.744264	-0.350899	-0.766276	0.985937	-0.561521	0.174518	-1.243408	0.365967	0.521484
47031		10.685420	0.043648	-1.130221	1.087209	-0.485971	0.190901	-1.243896	0.379395	0.519043
47032		10.615867	0.340809	-1.368516	1.126274	-0.425084	0.204818	-1.237305	0.386230	0.525391
47033		10.726223	0.663045	-1.366955	1.117066	-0.359956	0.206954	-1.235352	0.395264	0.523193
47034		10.696116	0.861313	-1.052310	1.102347	-0.305244	0.185024	-1.238037	0.406494	0.518555
47035		10.860235	1.187512	-0.574674	1.112426	-0.269992	0.158254	-1.233643	0.413330	0.516113
47036		11.053628	1.378087	-0.093143	1.119229	-0.239388	0.148573	-1.231445	0.419922	0.511719
47037		11.063521	1.914779	0.225783	1.078903	-0.221617	0.153629	-1.231934	0.431152	0.515869
47038		11.088420	2.541569	0.217013	1.045169	-0.211979	0.182476	-1.227539	0.437988	0.509277
47039		11.994611	3.528480	0.283038	0.784121	-0.122768	0.155788	-1.227783	0.444824	0.515625
47040		12.048762	3.184224	0.215447	0.391535	-0.055647	0.107498	-1.229980	0.444824	0.509033
47041		12.195643	2.012110	0.255855	0.159683	0.002996	0.023446	-1.232178	0.440186	0.507080
47042		12.321652	0.935700	0.985163	-0.083508	0.205393	-0.039558	-1.236572	0.437988	0.494141
47043		12.371285	0.272174	1.746268	-0.338329	0.484824	-0.052955	-1.231934	0.435791	0.489990
47044		12.307268	0.116807	2.083800	-0.530710	0.819000	-0.047386	-1.250000	0.435547	0.483154
47045		12.135189	0.338538	2.258632	-0.765116	1.171434	-0.051062	-1.251709	0.422119	0.470459
47046		12.029712	1.109393	1.910779	-1.033169	1.620932	-0.103009	-1.260498	0.417480	0.451172
47047		11.643716	0.877885	-0.025911	-0.777387	2.126633	-0.150214	-1.271484	0.410645	0.425293
47048		11.239197	-0.461139	-0.978162	-0.355598	2.386891	-0.094267	-1.284668	0.406250	0.386475
47049		11.635431	-1.565322	-1.356132	-0.103213	2.478962	-0.142624	-1.300293	0.401611	0.360596
47050		11.928780	-1.548586	-2.112022	-0.012639	2.580136	-0.228966	-1.308838	0.396973	0.323975
47051		12.160484	-1.809313	-2.613322	-0.396916	2.582681	-0.283064	-1.315430	0.392334	0.287354
47052		11.933259	-1.389727	-2.520187	-0.656382	2.622745	-0.344801	-1.328369	0.383301	0.250977
47053		12.446802	-1.179279	-2.585384	-0.679112	2.651105	-0.408326	-1.336914	0.369629	0.218750
47054		12.644630	-0.403102	-2.751598	-0.572351	2.767520	-0.440442	-1.343018	0.360596	0.184570
47055		12.774369	-0.099039	-2.601469	-0.684732	2.824862	-0.505262	-1.354004	0.351563	0.137207
47056		12.838213	-0.792961	-2.707098	-0.934404	2.873337	-0.548432	-1.357666	0.337891	0.103027
47057		13.143159	-1.607291	-2.539667	-1.180192	2.873272	-0.552575	-1.354980	0.326660	0.069092
47058		13.478727	-1.986337	-2.166638	-1.325476	2.873994	-0.473932	-1.359131	0.324219	0.032471
47059		13.439702	-1.969378	-1.791652	-1.299557	2.836936	-0.379738	-1.363037	0.308350	-0.008057
47060		13.450336	-1.144287	-1.479466	-1.033629	2.730983	-0.233477	-1.358154	0.303955	-0.040283
47061		12.394734	-1.363400	-1.710795	-0.751996	2.722535	-0.153328	-1.357910	0.299316	-0.078857
47062		11.406157	-0.282365	-1.180362	-0.422320	2.620162	-0.072353	-1.357422	0.294678	-0.108887
47063		11.373314	-0.564801	-1.652122	-0.270569	2.524024	-0.056481	-1.345947	0.296875	-0.149414
47064		11.654349	0.424966	-1.579327	-0.310864	2.506046	-0.120908	-1.340820	0.283447	-0.181396
47065		10.790538	-0.247344	-1.626329	-0.534058	2.551226	-0.165853	-1.333740	0.276611	-0.213379
47066		9.991670	0.774800	-1.013619	-0.612064	2.562596	-0.170435	-1.324463	0.274414	-0.249756
47067		9.486342	0.964865	-0.591768	-1.030919	2.369037	-0.079315	-1.322021	0.276611	-0.271240
47068		9.083166	0.691330	-0.839052	-1.177845	2.284389	-0.001843	-1.312988	0.278809	-0.301270
47069		8.007617	-0.890424	-1.215764	-1.124546	2.141806	0.054143	-1.303711	0.278809	-0.329102
47070		7.196432	-0.806138	-1.058392	-0.849878	1.951078	0.007973	-1.299316	0.281006	-0.348389
47071		7.018922	-0.087430	-1.119023	-0.865128	1.725200	-0.004200	-1.290283	0.283203	-0.367676
47072		6.845587	0.604291	-1.107489	-1.055027	1.585850	-0.016303	-1.285400	0.281006	-0.384766
47073		6.479382	0.856401	-1.016728	-1.274728	1.437675	0.010947	-1.274414	0.287842	-0.406250
47074		5.965117	0.842641	-0.868723	-1.480446	1.277992	0.045687	-1.263184	0.292236	-0.416992
47075		5.507515	0.611417	-0.884540	-1.592107	1.094531	0.066380	-1.258545	0.294678	-0.419189
47076		5.399151	0.395547	-0.648674	-1.541527	0.879054	0.061385	-1.261230	0.301270	-0.421387
47077		5.332869	-0.188117	-0.355672	-1.351827	0.682628	0.024566	-1.254639	0.310303	-0.427979
47078		5.382224	-0.480560	-0.093992	-1.107959	0.497240	-0.021875	-1.250244	0.317139	-0.426025
47079		5.598536	-0.603690	0.153927	-0.941337	0.333338	-0.065759	-1.257080	0.314941	-0.426025
47080		5.582460	-0.969345	0.432125	-0.848475	0.208209	-0.082848	-1.254883	0.319336	-0.430420
47081		5.781614	-1.146658	0.906218	-0.702118	0.064616	-0.095598	-1.257324	0.321533	-0.424072
47082		6.110548	-1.252149	1.210515	-0.538212	-0.076714	-0.104206	-1.259521	0.321533	-0.421875
47083		6.441739	-1.277794	1.197780	-0.370184	-0.178305	-0.120011	-1.264160	0.321533	-0.417725
47084		6.673545	-1.443243	1.016663	-0.159584	-0.243831	-0.139492	-1.264160	0.323975	-0.413330
47085		6.654059	-1.226380	1.254924	0.070628	-0.329920	-0.153049	-1.270752	0.319336	-0.406982
47086		6.472927	-0.958159	1.894789	0.265622	-0.459473	-0.154914	-1.275391	0.321533	-0.402832
47087		6.463261	-0.752100	2.511038	0.337672	-0.615858	-0.179383	-1.277588	0.314941	-0.394043
47088		6.857880	-0.726279	3.152860	0.341386	-0.761469	-0.189382	-1.286377	0.308105	-0.383301
47089		7.272239	-0.622197	3.963898	0.343090	-0.841001	-0.168867	-1.286621	0.314941	-0.370605
47090		7.680658	-0.597635	4.861390	0.286614	-0.912688	-0.125255	-1.295654	0.310303	-0.353271
47091		8.535209	-0.795081	5.593973	0.243248	-0.982518	-0.064828	-1.300537	0.317139	-0.342773
47092		9.142831	-0.781122	6.329036	0.127603	-0.980792	-0.063359	-1.304932	0.310303	-0.334229
47093		10.271819	-1.143838	6.928081	-0.135662	-0.874891	-0.125035	-1.318604	0.312500	-0.323730
47094		11.089555	-1.692293	6.726818	-0.504705	-0.585159	-0.180773	-1.316406	0.314941	-0.315186
47095		11.744448	-1.952158	6.615854	-0.734642	-0.192539	-0.184689	-1.321045	0.314941	-0.308594
47096		11.953645	-2.032349	6.409631	-0.837466	0.004753	-0.160177	-1.318848	0.319336	-0.308838
47097		13.509210	-2.125019	6.849131	-0.626326	0.097164	-0.111738	-1.316406	0.317139	-0.300049
47098		14.579654	-1.599433	8.405417	-0.514229	0.421124	-0.014731	-1.323486	0.326172	-0.309082
47099		13.970891	-1.382653	8.454470	-0.709198	0.697033	-0.001523	-1.319092	0.328369	-0.315430
47100		12.380551	-1.205706	7.435316	-0.594634	0.816463	-0.112068	-1.307373	0.321533	-0.332275
47101		10.380381	-0.438472	7.036236	-0.434941	0.870306	-0.237222	-1.307373	0.323975	-0.343018
47102		8.295251	-0.202008	6.621958	-0.497185	0.856061	-0.302877	-1.309570	0.319336	-0.345215
47103		6.300905	-0.482411	5.599668	-0.588533	0.684905	-0.311046	-1.307129	0.314941	-0.349365
47104		5.094814	-0.253026	4.478755	-0.686924	0.327929	-0.333302	-1.307373	0.319336	-0.355957
47105		4.972808	-0.500270	3.611800	-0.718660	0.004117	-0.356746	-1.306885	0.310303	-0.351318
47106		4.515694	-0.800300	2.187516	-0.442518	-0.331334	-0.321476	-1.311768	0.317139	-0.345215
47107		5.548029	-1.940060	0.151232	-0.295835	-0.769930	-0.241048	-1.315918	0.308105	-0.338623
47108		7.902862	-2.839273	-1.603360	-0.113691	-1.208025	-0.179814	-1.313721	0.305908	-0.316895
47109		11.815264	-2.995328	-1.561502	0.060792	-1.426211	-0.155346	-1.329834	0.308105	-0.304443
47110		14.558761	-2.351657	0.793711	-0.262087	-1.099047	-0.110896	-1.325439	0.310303	-0.284912
47111		15.885471	-1.742579	3.450271	-0.652796	-0.785592	-0.042744	-1.330078	0.310303	-0.272217
47112		17.505064	-1.669580	4.861277	-0.461996	-0.619340	0.090978	-1.332275	0.308105	-0.263672
47113		17.294850	-2.252390	5.372041	-0.070104	-0.413884	0.186698	-1.327881	0.314941	-0.257324
47114		14.647947	-2.899059	6.187928	0.016162	-0.169737	0.107117	-1.330078	0.310303	-0.254883
47115		11.092743	-2.960390	6.011303	0.107069	-0.079413	-0.013879	-1.328125	0.317139	-0.261475
47116		7.692917	-2.266253	3.543934	0.197803	-0.284014	-0.107734	-1.327881	0.308105	-0.248535
47117		5.261785	-1.442048	-0.081866	0.271113	-0.547621	-0.228241	-1.323242	0.303711	-0.243896
47118		3.426615	-0.888650	-2.872255	0.439074	-0.790638	-0.349337	-1.329834	0.299072	-0.233154
47119		3.669184	0.022142	-3.738353	0.675336	-1.093663	-0.443701	-1.329590	0.290283	-0.219971
47120		5.892909	1.265230	-2.497917	0.732965	-1.265186	-0.476509	-1.333740	0.274414	-0.202637
47121		8.195856	2.403315	-0.497849	0.746462	-1.247890	-0.455239	-1.335938	0.272217	-0.189697
47122		10.255218	3.681011	1.217313	0.782921	-1.104722	-0.377930	-1.335938	0.272217	-0.176758
47123		11.550112	4.442785	2.492688	0.562310	-0.879882	-0.272899	-1.342529	0.260986	-0.167969
47124		11.848920	4.482036	2.720843	0.084096	-0.721584	-0.181979	-1.340332	0.263184	-0.157227
47125		11.446362	3.426465	1.894768	-0.491375	-0.701938	-0.156266	-1.349365	0.260986	-0.142334
47126		10.726992	1.328208	1.056955	-0.788444	-0.737883	-0.161357	-1.340332	0.260986	-0.133545
47127		9.813552	-0.639138	0.611502	-0.618582	-0.821872	-0.199180	-1.344727	0.254150	-0.118408
47128		8.790230	-2.110271	0.465995	-0.184591	-0.915397	-0.225138	-1.349609	0.258789	-0.101318
47129		8.482655	-1.956293	0.363844	0.134501	-1.009477	-0.304974	-1.349365	0.251953	-0.090332
47130		7.875914	-1.860928	0.501992	0.418214	-1.043856	-0.342771	-1.347168	0.247559	-0.072998
47131		8.412218	-1.122127	0.681924	0.496984	-1.169050	-0.327886	-1.353760	0.240723	-0.057861
47132		9.180349	-1.191284	0.599242	0.586309	-1.267861	-0.251156	-1.355957	0.238525	-0.040771
47133		9.752923	-0.600948	0.640560	0.786857	-1.354243	-0.182291	-1.347168	0.240967	-0.021240
47134		10.232518	0.913350	0.601975	0.854360	-1.433574	-0.159723	-1.355957	0.234131	-0.001953
47135		9.835727	0.616108	0.099679	0.826138	-1.399848	-0.123142	-1.356445	0.238525	0.021729
47136		9.368478	1.102191	-0.365262	0.894458	-1.419491	-0.135465	-1.351807	0.234131	0.032471
47137		9.053037	1.044113	-0.819308	1.076272	-1.495662	-0.167569	-1.351807	0.229736	0.054199
47138		8.989547	1.201409	-1.121669	1.136505	-1.559761	-0.197590	-1.351807	0.227539	0.075684
47139		8.922580	1.527772	-1.137874	1.036398	-1.626155	-0.215151	-1.349609	0.225342	0.093018
47140		8.837223	1.096392	-0.917926	0.989988	-1.672964	-0.168048	-1.344971	0.223145	0.116943
47141		9.114053	1.106901	-0.888238	0.931621	-1.689909	-0.119645	-1.345459	0.232178	0.140381
47142		9.524331	1.074013	-0.909141	0.933350	-1.648126	-0.074741	-1.343262	0.232178	0.159668
47143		10.119643	1.799562	-0.413349	0.874802	-1.623083	0.029080	-1.341309	0.234375	0.187500
47144		10.484096	0.888070	-0.852407	0.880001	-1.547818	0.019848	-1.341553	0.239014	0.200439
47145		10.030743	0.915964	-0.740647	0.886706	-1.427374	-0.054373	-1.337402	0.245850	0.223877
47146		9.450757	1.025972	-0.577233	0.897248	-1.387375	-0.101223	-1.330566	0.243652	0.234863
47147		9.164474	1.232491	-0.689495	0.896775	-1.441914	-0.058527	-1.333008	0.245850	0.258545
47148		9.317616	0.607152	-1.312716	0.995440	-1.473032	-0.005022	-1.322021	0.252686	0.281982
47149		9.534768	0.418658	-1.627372	1.020979	-1.445183	-0.004793	-1.319824	0.254883	0.294922
47150		9.510061	0.870971	-1.312890	0.922872	-1.385571	0.012987	-1.322510	0.261719	0.314209
47151		9.734873	0.685427	-1.089207	0.828573	-1.309401	0.033571	-1.309082	0.261719	0.327148
47152		10.024407	0.490806	-0.705857	0.785364	-1.199632	0.041912	-1.302490	0.266357	0.346680
47153		9.937576	0.387160	-0.416636	0.809758	-1.105919	0.040357	-1.304932	0.273193	0.359375
47154		9.873449	0.424024	-0.592605	0.831478	-1.012065	0.049705	-1.304932	0.270752	0.372314
47155		9.780862	0.582315	-1.045490	0.808621	-0.971188	0.031593	-1.305420	0.282227	0.382813
47156		9.709982	0.621616	-1.454461	0.840609	-0.931140	0.018130	-1.296631	0.286621	0.393555
47157		9.594543	0.746123	-1.428213	0.849247	-0.909603	0.008909	-1.290283	0.298096	0.404053
47158		9.578588	0.582722	-1.453947	0.870388	-0.890503	0.017502	-1.294678	0.293457	0.414795
47159		9.600795	0.460861	-1.554542	0.932770	-0.876545	0.039488	-1.281250	0.298096	0.425781
47160		9.649745	0.331931	-1.759994	0.910360	-0.846937	0.073778	-1.283936	0.304688	0.427734
47161		9.813270	0.183286	-2.064789	0.809342	-0.836014	0.118655	-1.275391	0.320557	0.438232
47162		10.039633	0.057730	-2.120649	0.621273	-0.861292	0.159616	-1.273438	0.327393	0.448730
47163		10.427305	-0.115537	-1.990534	0.462910	-0.905149	0.179517	-1.275879	0.334229	0.461426
47164		10.634981	-0.248115	-1.490680	0.429714	-0.927982	0.181617	-1.260010	0.332031	0.472656
47165		10.550833	-0.098670	-0.839720	0.519691	-0.938138	0.182968	-1.258057	0.336426	0.485352
47166		10.394317	0.158789	-0.490735	0.689408	-0.940873	0.201069	-1.258545	0.350098	0.498047
47167		10.401443	0.501994	-0.613270	0.831859	-0.912605	0.220293	-1.245117	0.352295	0.502441
47168		10.546486	0.608138	-0.961122	0.907441	-0.873120	0.234618	-1.247803	0.368164	0.510742
47169		10.788219	0.354013	-1.340409	0.948608	-0.810196	0.245135	-1.241455	0.375000	0.512695
47170		10.750009	0.143621	-1.425778	0.955325	-0.753304	0.253906	-1.239258	0.379395	0.519043
47171		10.649830	-0.000960	-1.302159	0.930108	-0.720208	0.266857	-1.235352	0.395264	0.529541
47172		10.519579	0.073230	-1.262174	0.919616	-0.689360	0.278442	-1.226563	0.399658	0.536133
47173		10.251799	0.499352	-1.348112	0.970822	-0.626779	0.299324	-1.222168	0.408691	0.535889
47174		10.112048	1.046849	-1.347292	1.032114	-0.558750	0.308406	-1.220215	0.415527	0.531494
47175		10.184974	1.454537	-1.225832	1.044498	-0.484708	0.283976	-1.211670	0.431396	0.541992
47176		10.164106	1.551268	-0.707363	1.010660	-0.411652	0.243071	-1.214355	0.440430	0.539551
47177		10.343456	1.274401	-0.306005	1.000152	-0.358100	0.214311	-1.212402	0.449463	0.539307
47178		10.387161	1.213531	0.182650	0.976113	-0.293174	0.205035	-1.207764	0.449463	0.537354
47179		10.834013	1.735881	0.258168	0.974452	-0.204901	0.168171	-1.208252	0.462891	0.534668
47180		11.830046	2.457377	0.209763	0.953685	-0.097216	0.156731	-1.212891	0.469727	0.528076
47181		12.343703	2.910719	0.364187	0.718661	0.010766	0.110907	-1.210693	0.471924	0.523682
47182		12.659983	2.121112	0.567654	0.471857	0.033948	0.030803	-1.213135	0.474121	0.521484
47183		13.325103	1.345153	0.824262	0.242886	0.216712	-0.042980	-1.213135	0.478760	0.521484
47184		13.586615	0.655304	0.844876	-0.148910	0.588223	-0.070033	-1.224121	0.469482	0.512939
47185		13.535537	0.344771	0.928807	-0.361693	0.957701	-0.063481	-1.230713	0.465088	0.500000
47186		13.119445	0.657509	1.731651	-0.521344	1.304843	-0.054025	-1.232666	0.460449	0.482910
47187		12.517071	0.482116	2.329647	-0.901691	1.705450	-0.084324	-1.248047	0.451416	0.457031
47188		11.595509	-0.061941	0.179089	-0.842594	2.269105	-0.173305	-1.259033	0.442383	0.435547
47189		10.418990	-0.613331	-1.454822	-0.212078	2.753408	-0.165927	-1.279053	0.437744	0.398682
47190		11.411227	-2.066733	-1.261950	-0.090090	2.795627	-0.190598	-1.290039	0.437500	0.359863
47191		12.103387	-2.493372	-2.298184	0.144081	2.871359	-0.299218	-1.296387	0.428467	0.316895
47192		12.038254	-2.191464	-3.596096	0.147418	2.954222	-0.400976	-1.309814	0.428467	0.280273
47193		12.378605	-2.235305	-3.704706	-0.176301	2.838277	-0.492746	-1.324951	0.419189	0.239258
47194		12.327534	-1.244080	-3.045920	-0.336459	2.714211	-0.507881	-1.333252	0.401123	0.205322
47195		12.995693	-0.855888	-2.701474	-0.446387	2.714052	-0.608942	-1.339600	0.389893	0.170898
47196		13.198256	-0.416140	-2.469955	-0.643112	2.783831	-0.652144	-1.343506	0.380859	0.136719
47197		13.049755	-0.301806	-2.057134	-0.893740	2.833752	-0.703497	-1.351807	0.364990	0.096191
47198		12.841532	-0.456507	-1.927795	-1.190319	2.831890	-0.730662	-1.351318	0.355957	0.062012
47199		12.580670	-1.553484	-1.899201	-1.265238	2.812109	-0.666130	-1.357422	0.337891	0.025635
47200		12.359191	-2.431337	-1.929112	-1.123115	2.751599	-0.592807	-1.359131	0.326416	-0.008545
47201		12.481624	-1.800298	-1.661963	-0.817266	2.685320	-0.475725	-1.358643	0.321777	-0.051270
47202		12.515769	-1.067009	-1.635230	-0.567139	2.601183	-0.419689	-1.360352	0.310547	-0.085449
47203		12.229611	-0.604175	-1.727970	-0.410988	2.595188	-0.401613	-1.355469	0.301514	-0.119629
47204		11.536303	0.223558	-1.584578	-0.235431	2.603451	-0.360385	-1.354980	0.292480	-0.151611
47205		10.752978	-0.222471	-1.524543	-0.061175	2.507283	-0.345875	-1.345459	0.285645	-0.183594
47206		10.474758	1.270469	-1.049783	-0.188119	2.433700	-0.298856	-1.342773	0.278809	-0.217773
47207		9.625542	0.379226	-0.940372	-0.491073	2.359919	-0.328179	-1.328857	0.269775	-0.247559
47208		9.112585	0.320165	-0.881494	-0.835115	2.255112	-0.298649	-1.321777	0.263184	-0.275146
47209		8.071043	-0.471674	-1.061757	-1.103005	2.179149	-0.240382	-1.321533	0.265381	-0.305420
47210		7.567087	-0.907336	-1.238443	-1.112197	2.024219	-0.206021	-1.312500	0.267578	-0.322510
47211		7.168296	-0.753120	-0.992875	-1.108245	1.861187	-0.185160	-1.307617	0.258545	-0.345947
47212		6.904335	-0.354096	-0.683957	-1.218003	1.726511	-0.163049	-1.298584	0.262939	-0.367432
47213		6.677523	0.281392	-0.542917	-1.462804	1.624488	-0.144860	-1.291748	0.265381	-0.380127
47214		6.238544	0.230229	-0.599273	-1.680602	1.525842	-0.096898	-1.287354	0.267578	-0.393066
47215		6.084974	0.888327	-0.406766	-1.729407	1.360442	-0.064564	-1.280518	0.269775	-0.412354
47216		6.158642	0.600064	-0.336343	-1.775330	1.179987	-0.050082	-1.276123	0.276611	-0.414551
47217		6.218170	0.591558	-0.110557	-1.663129	1.042885	-0.028681	-1.276367	0.283203	-0.425537
47218		6.119197	0.208715	0.466315	-1.438725	0.886293	-0.009906	-1.271973	0.292236	-0.429932
47219		6.241322	-0.043642	0.845704	-1.197573	0.688613	-0.025075	-1.267578	0.292236	-0.438477
47220		6.409266	-0.560344	0.784181	-0.987519	0.471888	-0.055556	-1.272217	0.296875	-0.440918
47221		6.645567	-0.899768	0.737938	-0.802941	0.272359	-0.080800	-1.270020	0.301270	-0.438721
47222		6.435429	-1.301623	0.683666	-0.678109	0.114553	-0.133346	-1.272217	0.301270	-0.438721
47223		6.176601	-1.637473	0.923151	-0.504029	-0.050830	-0.182465	-1.265625	0.301270	-0.432373
47224		6.171226	-1.940505	1.133117	-0.281520	-0.238954	-0.203801	-1.272461	0.301270	-0.434570
47225		6.099883	-2.029307	1.340661	-0.040327	-0.398363	-0.197439	-1.276855	0.296875	-0.419434
47226		6.058054	-1.875506	1.660935	0.102811	-0.546466	-0.182577	-1.283447	0.290039	-0.417236
47227		5.966919	-1.771840	2.120567	0.107618	-0.675705	-0.154747	-1.281250	0.290039	-0.399902
47228		6.029371	-1.738889	2.200062	0.108942	-0.796811	-0.113833	-1.288330	0.299072	-0.393799
47229		6.758473	-1.923577	1.931711	0.210572	-0.869891	-0.048599	-1.297363	0.294434	-0.383057
47230		7.532412	-1.723564	1.741683	0.395298	-0.876725	-0.034937	-1.304199	0.301270	-0.374756
47231		7.839924	-1.794571	2.021397	0.508953	-0.826772	0.003865	-1.306396	0.296875	-0.368164
47232		8.569550	-1.572458	2.771953	0.627036	-0.869574	0.051607	-1.313477	0.299072	-0.353271
47233		9.376269	-0.955020	3.326931	0.626454	-0.872548	0.130303	-1.317871	0.294434	-0.340332
47234		9.875524	-0.507252	4.137288	0.535809	-0.784200	0.185121	-1.318359	0.305908	-0.330078
47235		10.304065	-0.060814	5.194263	0.431540	-0.641157	0.168789	-1.315918	0.303467	-0.323486
47236		10.598971	0.564659	6.155025	0.229822	-0.469493	0.083066	-1.324951	0.303467	-0.323486
47237		10.567107	0.567415	6.239566	-0.068829	-0.308135	-0.003859	-1.327393	0.305908	-0.317139
47238		10.419385	0.389757	6.581288	-0.369157	-0.152642	-0.048540	-1.334229	0.308105	-0.315186
47239		10.336397	-0.200288	6.893774	-0.561284	-0.089005	-0.060173	-1.332031	0.308105	-0.319580
47240		10.650891	-1.070837	7.076967	-0.425588	-0.103747	-0.033958	-1.334473	0.314941	-0.304688
47241		11.157521	-1.860184	7.257208	-0.025616	-0.191231	0.015675	-1.332275	0.317139	-0.300293
47242		12.006806	-1.825300	7.670465	0.338604	-0.267643	0.016536	-1.332275	0.317139	-0.306885
47243		12.763987	-1.440425	7.739835	0.423161	-0.194737	-0.052286	-1.332275	0.314941	-0.306641
47244		12.497956	-1.666492	7.145848	0.463976	-0.038436	-0.158109	-1.336426	0.305908	-0.302246
47245		11.680183	-1.380604	6.652900	0.508776	0.107525	-0.250671	-1.334229	0.305908	-0.308594
47246		10.606473	-1.013613	6.346655	0.198218	0.276129	-0.319365	-1.338379	0.299072	-0.312988
47247		9.577997	-1.100146	5.563877	-0.227914	0.344785	-0.301823	-1.333740	0.294434	-0.317139
47248		9.167743	-1.462336	4.152546	-0.712830	0.241025	-0.285924	-1.335938	0.292236	-0.314941
47249		9.458082	-1.097299	2.548065	-1.235129	0.100114	-0.223520	-1.331543	0.294434	-0.314941
47250		10.075433	-0.916742	1.240630	-1.649274	-0.100540	-0.132288	-1.329346	0.296875	-0.308350
47251		10.962376	-0.680407	0.526213	-1.778842	-0.292704	-0.059960	-1.332031	0.303467	-0.293457
47252		11.886529	-0.821257	0.422345	-1.566535	-0.341547	-0.015775	-1.336426	0.303467	-0.284912
47253		12.518512	-1.346244	-0.169235	-1.050640	-0.456502	0.050869	-1.332275	0.310303	-0.276611
47254		12.345833	-2.109800	0.417470	-0.460153	-0.604193	0.092836	-1.336914	0.314941	-0.261719
47255		11.444006	-2.998313	2.110913	0.200041	-0.626674	0.043848	-1.330078	0.312744	-0.265869
47256		9.929094	-3.404238	3.893569	0.832233	-0.505671	-0.021346	-1.334473	0.305908	-0.252686
47257		8.751208	-3.620057	4.261926	1.055895	-0.307905	-0.071437	-1.334473	0.303711	-0.254883
47258		7.457883	-3.126657	2.592144	1.102284	-0.343156	-0.141632	-1.329590	0.294678	-0.252441
47259		7.290424	-1.937496	-0.159798	0.827139	-0.699380	-0.233440	-1.333984	0.290039	-0.241699
47260		7.306871	-0.409163	-2.767185	0.441796	-1.032338	-0.329858	-1.333984	0.285645	-0.228516
47261		7.557252	1.254126	-4.023735	0.300912	-1.305236	-0.396485	-1.338379	0.276611	-0.209229
47262		7.942146	2.819454	-3.637723	0.475968	-1.445476	-0.382813	-1.344971	0.274414	-0.194092
47263		8.610024	3.906965	-1.875541	0.710995	-1.510805	-0.287492	-1.342773	0.267578	-0.172363
47264		10.057501	4.604787	0.073513	0.708264	-1.488200	-0.177015	-1.347412	0.267578	-0.150879
47265		11.732420	4.439964	1.525020	0.338228	-1.319478	-0.089978	-1.349609	0.263184	-0.133789
47266		12.117113	3.101777	1.783430	-0.172933	-1.047107	-0.001037	-1.349854	0.272217	-0.116699
47267		11.447631	1.723720	1.465606	-0.496943	-0.841664	0.014148	-1.349854	0.270020	-0.108154
47268		9.915720	0.639078	1.255738	-0.418720	-0.824820	-0.029304	-1.347412	0.263184	-0.090576
47269		8.555263	-0.208562	0.857052	-0.064647	-0.986982	-0.087988	-1.352051	0.260986	-0.071289
47270		7.909937	-1.100387	0.474325	0.400032	-1.178270	-0.090040	-1.347656	0.265625	-0.056396
47271		8.181276	-1.694252	-0.042433	0.806173	-1.340872	-0.075523	-1.347900	0.263428	-0.036865
47272		9.074868	-1.204023	0.170796	1.004575	-1.409001	-0.071798	-1.352295	0.261230	-0.028320
47273		9.691910	-0.778978	0.854352	0.904997	-1.375615	-0.080719	-1.350098	0.261230	-0.006836
47274		9.932374	-0.672148	1.039977	0.787684	-1.284850	-0.123005	-1.352539	0.259033	0.010498
47275		9.661577	-0.340241	1.090466	0.773341	-1.210998	-0.156608	-1.352539	0.259033	0.027588
47276		8.974912	-0.146381	0.676491	1.027212	-1.188453	-0.164595	-1.350342	0.259033	0.047119
47277		8.667889	1.882418	0.438957	1.139740	-1.228941	-0.186251	-1.350586	0.263428	0.055664
47278		8.350577	1.558701	-0.223331	0.947461	-1.211903	-0.143713	-1.345947	0.254639	0.072998
47279		8.852677	1.843762	-0.586030	1.043731	-1.249114	-0.125767	-1.350586	0.259033	0.087891
47280		9.384409	1.502740	-1.005876	0.865851	-1.218381	-0.098116	-1.348389	0.259033	0.105225
47281		9.821549	1.203269	-1.076569	0.744553	-1.217794	-0.072815	-1.341797	0.259033	0.128906
47282		9.922221	1.254572	-0.622506	0.656119	-1.202439	-0.025255	-1.344238	0.261475	0.137451
47283		10.021844	0.948575	-0.067093	0.575363	-1.160973	0.002332	-1.351074	0.261475	0.156738
47284		9.899478	1.103373	0.609419	0.539368	-1.067014	-0.012651	-1.344482	0.263672	0.169678
47285		10.161163	1.173363	0.930379	0.375531	-0.987501	-0.073085	-1.339844	0.261475	0.182617
47286		10.154761	1.073115	0.685754	0.293841	-0.882815	-0.103673	-1.340088	0.268311	0.193359
47287		10.338326	0.375841	-0.279087	0.266841	-0.881702	-0.096710	-1.335693	0.266113	0.201904
47288		9.897116	-0.074233	-0.907911	0.480568	-0.803681	-0.109798	-1.335693	0.268311	0.214844
47289		9.261027	-0.300254	-0.791514	0.726993	-0.863508	-0.086532	-1.333496	0.268311	0.223389
47290		9.132593	-0.791754	-1.042150	0.984377	-0.984684	-0.080601	-1.331543	0.275146	0.229736
47291		9.669114	0.489525	-1.053090	1.266171	-1.091928	0.032803	-1.329346	0.277344	0.249023
47292		10.466182	1.289493	-1.270631	1.227352	-1.127207	0.130912	-1.329834	0.284180	0.263916
47293		10.557744	1.439991	-1.708053	1.092141	-1.025356	0.175296	-1.325439	0.288574	0.270508
47294		10.169062	1.302551	-1.937375	0.769911	-0.899651	0.123997	-1.321045	0.293213	0.279053
47295		9.815741	1.035262	-1.615531	0.514370	-0.900566	0.064614	-1.321533	0.302246	0.298096
47296		9.610734	0.599725	-1.080287	0.400434	-0.906168	0.019830	-1.314697	0.300049	0.306885
47297		9.432496	0.150140	-0.568362	0.373720	-0.881083	0.011072	-1.310303	0.300049	0.319824
47298		9.375662	-0.205649	-0.333902	0.379577	-0.832851	0.033136	-1.314941	0.306885	0.326172
47299		9.371238	-0.167483	-0.329375	0.386967	-0.783154	0.082773	-1.308350	0.309082	0.334717
47300		9.384238	-0.021425	-0.469139	0.394981	-0.770382	0.141860	-1.306396	0.320313	0.340820
47301		9.309241	0.060231	-0.592573	0.433470	-0.807505	0.182706	-1.304443	0.324951	0.355957
47302		9.268591	-0.251565	-0.962476	0.469967	-0.891356	0.200088	-1.302246	0.322754	0.364502
47303		9.527767	-0.272808	-1.093369	0.588355	-0.984609	0.210430	-1.291260	0.333984	0.377441
47304		9.792960	-0.124112	-1.042883	0.636923	-1.015058	0.228541	-1.291504	0.336182	0.388184
47305		10.016046	0.259824	-1.065953	0.670956	-0.991073	0.240741	-1.280518	0.347656	0.400879
47306		10.138284	0.698956	-1.201672	0.737368	-0.926479	0.264306	-1.281006	0.356689	0.405029
47307		10.238535	0.953188	-1.419318	0.869882	-0.852794	0.300066	-1.276611	0.363281	0.413574
47308		10.195704	0.720010	-1.566776	0.986758	-0.768649	0.330790	-1.274902	0.374756	0.424072
47309		10.215401	0.344992	-1.588020	1.095765	-0.726477	0.324517	-1.272949	0.383789	0.430176
47310		10.601248	0.312008	-1.445101	1.144244	-0.681863	0.297534	-1.266357	0.388184	0.434570
47311		10.901247	0.380770	-1.166254	1.083364	-0.594292	0.256115	-1.257568	0.397217	0.436768
47312		11.042924	0.508845	-0.793167	0.988097	-0.486947	0.205351	-1.257813	0.408447	0.438477
47313		10.980223	0.297588	-0.246277	0.910694	-0.385935	0.157661	-1.258057	0.415283	0.442627
47314		11.046451	-0.017628	0.621604	0.938413	-0.334373	0.111814	-1.253662	0.417480	0.438477
47315		11.208665	-0.194527	1.351506	1.055906	-0.286468	0.086308	-1.258301	0.422119	0.440430
47316		11.079168	-0.041464	1.933080	1.196849	-0.220799	0.085913	-1.249756	0.433350	0.437988
47317		11.318797	0.620463	1.893736	1.397531	-0.192825	0.102993	-1.251953	0.437744	0.431396
47318		12.140062	2.248988	1.960751	1.493007	-0.118426	0.124487	-1.250244	0.448975	0.422607
47319		12.650866	3.040924	1.591219	1.208005	0.016606	0.123379	-1.250244	0.455811	0.418213
47320		12.835333	2.705018	1.187133	0.968416	0.080885	0.110133	-1.245850	0.460449	0.409424
47321		12.777792	2.648050	1.045723	0.667476	0.199604	0.117509	-1.248535	0.469238	0.406982
47322		12.789663	2.453803	0.806214	0.215101	0.454562	0.141247	-1.252930	0.467041	0.392090
47323		12.534654	1.807470	0.712017	-0.126408	0.667957	0.162327	-1.255127	0.469238	0.389893
47324		12.653020	0.861580	0.939588	-0.341277	0.886188	0.157129	-1.259277	0.462402	0.374756
47325		12.735590	0.026849	0.836731	-0.667507	1.189147	0.114281	-1.265869	0.460205	0.359619
47326		12.739750	-0.542566	0.182827	-1.064860	1.704175	0.028467	-1.274658	0.455566	0.340332
47327		11.508172	-1.752077	-0.703260	-1.072744	2.250585	-0.036226	-1.281006	0.446533	0.312500
47328		10.272073	-3.439505	-0.629411	-0.707582	2.563808	-0.004637	-1.292236	0.444336	0.282227
47329		10.751210	-4.903351	-0.866997	-0.099946	2.725191	0.056471	-1.294189	0.441895	0.247803
47330		10.718710	-4.484839	-1.606290	0.630586	2.845658	0.045499	-1.305176	0.444092	0.200439
47331		10.881092	-3.774196	-2.364438	0.846046	2.933123	0.019186	-1.307373	0.444092	0.159424
47332		11.068779	-3.190583	-2.462490	0.793619	2.962090	-0.014818	-1.309326	0.441650	0.114258
47333		11.677172	-2.135113	-2.309367	0.713922	2.952948	-0.098789	-1.311279	0.437256	0.082031
47334		12.469207	-0.838840	-2.444040	0.574195	2.947322	-0.197959	-1.313232	0.434814	0.034912
47335		13.126459	-0.734120	-2.733106	0.227983	2.903911	-0.281972	-1.312744	0.425781	-0.001465
47336		12.956778	-1.424326	-2.813210	-0.030505	2.901033	-0.356377	-1.314453	0.414307	-0.040039
47337		12.943313	-2.102983	-2.479387	-0.087693	2.833342	-0.426360	-1.313721	0.405273	-0.084961
47338		13.133051	-1.585555	-1.830404	-0.106375	2.760898	-0.461436	-1.304199	0.394043	-0.112549
47339		12.738321	-0.800279	-1.205288	-0.236036	2.768589	-0.473721	-1.303955	0.389404	-0.146729
47340		12.155131	0.554321	-0.210860	-0.326834	2.626118	-0.417022	-1.305664	0.380371	-0.180908
47341		11.112939	1.417606	0.010517	-0.341985	2.557092	-0.446132	-1.296387	0.373779	-0.206543
47342		10.764400	1.106883	0.106920	-0.459211	2.417385	-0.465921	-1.288818	0.360107	-0.236084
47343		9.871609	1.653980	0.382399	-0.503596	2.395409	-0.492999	-1.281982	0.357910	-0.263916
47344		9.688149	2.421276	0.386118	-0.687804	2.285408	-0.460708	-1.274658	0.348877	-0.293701
47345		9.291475	2.947556	0.591101	-0.968073	2.178546	-0.320356	-1.276611	0.346436	-0.319580
47346		8.862471	1.998190	0.468646	-1.311087	2.058398	-0.281563	-1.262939	0.342041	-0.336426
47347		9.313745	1.257474	0.578698	-1.608495	1.822615	-0.270706	-1.260498	0.342041	-0.353516
47348		9.207451	0.348094	0.012293	-1.982037	1.742743	-0.294348	-1.253662	0.337402	-0.362061
47349		8.799708	-0.148619	-0.472749	-2.150697	1.682378	-0.317332	-1.246826	0.344238	-0.389893
47350		7.935770	-0.308942	-0.425131	-2.157647	1.640468	-0.310443	-1.235596	0.348877	-0.400635
47351		7.005612	-0.242337	-0.137765	-2.054494	1.565943	-0.284465	-1.235596	0.351074	-0.407227
47352		6.041597	-0.525949	-0.051802	-1.929037	1.489967	-0.252013	-1.233398	0.351074	-0.420166
47353		5.585317	-0.729893	-0.103603	-1.797097	1.385498	-0.280660	-1.226563	0.353271	-0.430664
47354		5.287437	-0.829596	0.021436	-1.752312	1.325071	-0.336673	-1.217529	0.351074	-0.439209
47355		5.473862	-1.118524	0.234863	-1.685313	1.243347	-0.388947	-1.217529	0.355469	-0.445801
47356		5.890617	-1.544481	0.434262	-1.515394	1.172495	-0.436839	-1.217529	0.357666	-0.450195
47357		6.365097	-2.013130	0.769737	-1.263305	1.082913	-0.456153	-1.212891	0.355469	-0.467285
47358		6.671665	-2.728684	0.937062	-0.939206	0.953789	-0.454234	-1.212891	0.357666	-0.473633
47359		7.043714	-2.965713	1.331990	-0.561777	0.734460	-0.477332	-1.212646	0.348633	-0.477783
47360		7.657227	-2.373388	2.231657	-0.505319	0.457835	-0.489410	-1.208008	0.344238	-0.481934
47361		7.660481	-1.819278	3.304339	-0.647551	0.216769	-0.491930	-1.212402	0.344238	-0.481934
47362		7.082986	-1.679470	3.986355	-0.744709	0.011972	-0.508383	-1.217285	0.348633	-0.477783
47363		6.458230	-1.778463	4.195737	-0.578190	-0.194083	-0.516294	-1.221436	0.342041	-0.471191
47364		6.085862	-1.545026	3.642557	-0.310982	-0.392269	-0.527133	-1.225830	0.337402	-0.462646
47365		5.910312	-0.908491	2.992171	-0.123182	-0.532948	-0.524196	-1.228027	0.335205	-0.456055
47366		5.648652	-0.221822	3.099454	-0.175972	-0.587468	-0.509702	-1.234863	0.330566	-0.445313
47367		5.359375	0.008212	3.087400	-0.255457	-0.618966	-0.480564	-1.245850	0.323975	-0.441162
47368		5.509061	-0.206907	2.862186	-0.181950	-0.720939	-0.426613	-1.248047	0.317139	-0.434570
47369		6.134652	-0.257708	2.871304	-0.063856	-0.832056	-0.338824	-1.250488	0.323975	-0.421875
47370		7.124394	-0.449093	3.077361	0.029087	-0.903772	-0.231550	-1.261719	0.319336	-0.411133
47371		7.374862	-0.522342	3.554671	-0.012323	-0.926031	-0.131604	-1.266357	0.317139	-0.395996
47372		8.095902	-0.747558	3.869419	-0.171927	-0.958543	-0.049413	-1.268799	0.323975	-0.381348
47373		8.848857	-0.781395	3.779171	-0.276111	-0.950437	-0.010559	-1.275879	0.330566	-0.370850
47374		10.151197	-0.857787	3.921881	-0.368871	-0.945660	0.005418	-1.282715	0.330566	-0.362305
47375		10.668689	-0.726561	4.377192	-0.449455	-0.789505	-0.012222	-1.285400	0.337402	-0.349609
47376		10.757386	-0.871625	5.028115	-0.607836	-0.591923	-0.058040	-1.294434	0.339600	-0.341064
47377		10.998368	-1.125227	5.410964	-0.667648	-0.382159	-0.089972	-1.287842	0.339600	-0.330322
47378		11.244553	-1.313968	5.796043	-0.702604	-0.178122	-0.094244	-1.294678	0.342041	-0.330566
47379		11.162559	-1.464213	6.061260	-0.749651	-0.011974	-0.105524	-1.292236	0.342041	-0.332520
47380		10.954438	-1.441792	6.204415	-0.808310	0.122201	-0.116672	-1.290283	0.351074	-0.328369
47381		10.555033	-1.439535	6.287262	-0.829264	0.187674	-0.103011	-1.290527	0.353271	-0.324219
47382		10.247537	-1.390354	6.553216	-0.758165	0.174125	-0.072570	-1.292480	0.348633	-0.324219
47383		9.636504	-1.159632	6.997866	-0.681655	0.141095	-0.042914	-1.295166	0.357666	-0.328613
47384		8.876512	-1.091712	7.436352	-0.680372	0.024914	-0.056838	-1.295166	0.359863	-0.326660
47385		8.291359	-1.313582	7.259383	-0.561437	-0.208803	-0.109031	-1.290527	0.353271	-0.319824
47386		8.396415	-1.206121	6.230216	-0.281920	-0.467332	-0.216175	-1.292725	0.353271	-0.309082
47387		8.304805	-1.225858	4.667187	-0.183131	-0.522063	-0.342209	-1.299561	0.351074	-0.302734
47388		8.440519	-2.179685	3.122304	-0.505716	-0.486705	-0.389591	-1.299561	0.351074	-0.296387
47389		9.716596	-3.493696	1.527473	-0.721315	-0.552854	-0.342188	-1.308594	0.346436	-0.285645
47390		12.126467	-4.318551	-0.504720	-0.239254	-0.767439	-0.260886	-1.310791	0.348633	-0.277100
47391		14.505156	-2.749877	0.486977	0.190237	-0.707136	-0.134374	-1.310791	0.344238	-0.261963
47392		15.848873	-1.493324	2.582700	-0.153837	-0.443200	0.069662	-1.312988	0.342041	-0.264160
47393		16.722686	-1.474683	3.176675	-0.417113	-0.216994	0.277581	-1.315674	0.353271	-0.255859
47394		15.527390	-3.266480	2.725872	-0.419775	-0.063361	0.324640	-1.306641	0.355469	-0.255615
47395		12.361500	-6.528575	3.735173	-0.231449	0.080678	0.188194	-1.302246	0.357910	-0.257813
47396		8.275549	-6.613326	4.687182	0.441049	0.063048	-0.036277	-1.299805	0.351074	-0.255371
47397		6.953248	-4.066479	3.217686	1.112966	-0.299301	-0.159541	-1.299316	0.337646	-0.250732
47398		7.151764	-0.915130	1.050821	1.276746	-0.549894	-0.259060	-1.301514	0.333008	-0.252930
47399		6.943594	1.269420	-1.333901	0.991948	-0.631264	-0.449827	-1.305664	0.321777	-0.246338
47400		6.707545	3.018877	-3.346974	0.546491	-0.741907	-0.658633	-1.307861	0.317139	-0.239746
47401		6.564044	4.436681	-3.265971	0.064217	-0.963546	-0.729718	-1.309814	0.305908	-0.218018
47402		7.094832	5.485576	-1.220423	-0.025229	-1.354281	-0.657369	-1.309570	0.294678	-0.202637
47403		8.980415	5.923141	1.186856	0.087389	-1.623551	-0.451854	-1.320801	0.290283	-0.178955
47404		11.562586	4.744317	2.195863	-0.123722	-1.494002	-0.209670	-1.323242	0.294922	-0.151367
47405		12.733108	3.484853	2.118998	-0.613552	-1.147069	-0.036661	-1.323486	0.294922	-0.140381
47406		12.037760	1.099367	1.166737	-1.165492	-0.883554	0.028231	-1.319092	0.299316	-0.127686
47407		10.482418	-0.248195	0.516583	-1.086586	-0.756707	-0.025813	-1.319092	0.294922	-0.110352
47408		8.659868	-1.234365	0.770387	-0.792953	-0.799681	-0.158262	-1.323486	0.290283	-0.095215
47409		7.232341	-2.567652	1.035204	-0.477876	-0.979116	-0.288985	-1.325684	0.283691	-0.075684
47410		6.977125	-2.544892	1.065745	-0.089671	-1.226935	-0.393212	-1.327881	0.281494	-0.058594
47411		7.996591	-1.249254	1.327202	0.103333	-1.494867	-0.456791	-1.328125	0.281494	-0.039063
47412		8.656973	-1.628071	1.573343	0.104445	-1.573380	-0.401030	-1.336914	0.270264	-0.019775
47413		9.235753	-1.097779	1.381484	0.123360	-1.527225	-0.338517	-1.327881	0.268066	0.004150
47414		9.261316	-1.143199	1.172209	0.453916	-1.419848	-0.289765	-1.339111	0.265625	0.025635
47415		9.177188	-0.101014	0.829104	0.679014	-1.401507	-0.240273	-1.339111	0.261230	0.040771
47416		9.170521	0.403884	0.022971	0.947178	-1.358138	-0.195734	-1.332520	0.263428	0.053711
47417		9.291899	1.513129	-0.429827	1.038458	-1.306704	-0.157903	-1.330322	0.261230	0.073242
47418		9.253908	1.872381	-0.606588	0.913376	-1.245991	-0.147886	-1.330322	0.261230	0.083984
47419		9.157040	2.503486	-0.677075	0.747710	-1.218684	-0.151552	-1.332764	0.261475	0.101074
47420		9.349141	0.704195	-0.891123	0.458148	-1.205952	-0.141008	-1.330322	0.259033	0.122559
47421		9.151501	0.762294	-0.472617	0.433738	-1.191192	-0.183940	-1.328369	0.261475	0.135498
47422		9.404561	-0.184439	-0.227228	0.388292	-1.288959	-0.204930	-1.326172	0.263672	0.152832
47423		9.738362	0.388474	-0.095461	0.550573	-1.307911	-0.159249	-1.326172	0.261475	0.165771
47424		10.323351	0.372482	-0.274667	0.536068	-1.342173	-0.040554	-1.326416	0.261475	0.185059
47425		10.204667	0.280365	-0.542982	0.537890	-1.280136	-0.068325	-1.322021	0.266113	0.206543
47426		9.925215	-0.076207	-0.694150	0.545251	-1.297826	-0.070718	-1.322021	0.263916	0.225830
47427		9.628154	0.663778	-0.711581	0.748049	-1.403409	-0.080262	-1.317871	0.268311	0.238770
47428		9.365605	0.612057	-0.792816	0.775682	-1.414502	-0.005282	-1.315674	0.268311	0.256104
47429		9.179880	0.812735	-0.867387	0.830987	-1.338537	0.065888	-1.311279	0.272949	0.275391
47430		9.292262	0.966554	-1.035629	0.728398	-1.362906	0.054776	-1.304932	0.281982	0.281738
47431		9.870775	0.873092	-1.089731	0.695124	-1.230652	0.070258	-1.302979	0.286621	0.302979
47432		9.839157	1.085662	-1.304430	0.636303	-1.048085	0.048416	-1.301025	0.293213	0.311523
47433		9.745859	0.950662	-1.542993	0.579855	-1.020904	0.001394	-1.294189	0.293457	0.328857
47434		9.598855	0.416618	-1.475653	0.505210	-1.034240	-0.040996	-1.296631	0.297852	0.341553
47435		9.358539	-0.216014	-1.426603	0.496273	-1.074069	-0.044009	-1.290039	0.297852	0.358887
47436		9.514402	-0.713262	-1.312955	0.494750	-1.112185	-0.011687	-1.292480	0.300293	0.369629
47437		9.650676	-0.951462	-1.371560	0.481519	-1.074916	0.018365	-1.279053	0.306885	0.380371
47438		9.604464	-0.923142	-1.243655	0.494727	-1.036407	0.040098	-1.283936	0.311523	0.395264
47439		9.616561	-0.658816	-1.102253	0.574772	-1.034003	0.054600	-1.277344	0.316162	0.412598
47440		9.795015	-0.188012	-0.823826	0.719008	-1.044518	0.067910	-1.268311	0.318359	0.416748
47441		10.114535	0.212717	-0.527200	0.882058	-1.016287	0.077650	-1.268799	0.329590	0.429443
47442		10.631411	0.395068	-0.448232	1.015208	-0.961713	0.074725	-1.262207	0.334229	0.440186
47443		11.186537	0.510203	-0.425013	1.140785	-0.877214	0.073209	-1.255615	0.341064	0.444580
47444		11.226844	0.435123	-0.503999	1.221737	-0.778423	0.087341	-1.256104	0.350098	0.448486
47445		10.797418	0.642894	-0.707947	1.307084	-0.750627	0.113844	-1.251709	0.356689	0.452881
47446		10.323754	0.799183	-0.951639	1.282301	-0.796267	0.155029	-1.249756	0.363525	0.463379
47447		10.228063	0.709468	-1.339659	1.250437	-0.815082	0.203489	-1.245605	0.372559	0.461182
47448		10.349474	0.944538	-1.769357	1.295380	-0.789133	0.246202	-1.241699	0.388428	0.471436
47449		10.548459	1.393227	-1.907292	1.371532	-0.757564	0.273473	-1.235107	0.395264	0.478027
47450		10.799095	1.761687	-1.226843	1.368977	-0.717672	0.273419	-1.224365	0.413086	0.477539
47451		11.021331	1.977017	-0.220451	1.166427	-0.689953	0.229942	-1.222412	0.417725	0.484131
47452		11.116655	1.822624	0.419976	0.917110	-0.638989	0.167199	-1.224854	0.426758	0.485840
47453		11.243925	1.635365	0.844140	0.777360	-0.558408	0.119305	-1.218018	0.426758	0.492432
47454		12.018764	1.609043	0.724611	0.812890	-0.427421	0.115214	-1.218506	0.437988	0.487793
47455		12.560733	2.114362	0.655353	0.798970	-0.281321	0.094868	-1.216064	0.437988	0.483643
47456		12.999114	2.255574	0.999031	0.765230	-0.262124	0.049627	-1.218506	0.440186	0.489990
47457		13.048650	2.229849	1.551643	0.700416	-0.250085	0.000894	-1.214355	0.449219	0.487793
47458		13.432732	2.250162	1.631936	0.392556	-0.047287	-0.016457	-1.214355	0.449219	0.487793
47459		13.651252	1.724300	0.531170	0.080170	0.281500	-0.016713	-1.216309	0.444824	0.483398
47460		13.608003	1.034036	0.176996	-0.085229	0.655456	-0.024890	-1.227539	0.444824	0.474609
47461		13.340942	0.114612	1.499425	-0.277384	0.914236	-0.049978	-1.231934	0.440186	0.461914
47462		13.385195	-0.642730	2.351533	-0.533772	1.228918	-0.079009	-1.240479	0.428955	0.447021
47463		12.708777	-0.587482	1.819045	-0.761911	1.823843	-0.129268	-1.251709	0.426514	0.423096
47464		10.823462	-1.460424	0.137910	-0.556267	2.390705	-0.168296	-1.260254	0.419678	0.393066
47465		9.455711	-2.233328	-0.121706	-0.058908	2.660251	-0.116463	-1.273438	0.415039	0.349854
47466		9.485525	-3.195460	-0.473496	0.357272	2.775433	-0.122697	-1.277832	0.412842	0.313477
47467		10.204924	-3.181724	-1.604785	0.891011	2.849259	-0.160750	-1.295654	0.415039	0.272217
47468		10.891480	-2.318943	-2.587571	0.882648	2.904069	-0.256955	-1.304199	0.410400	0.224854
47469		11.535656	-2.105357	-3.186295	0.581914	2.813565	-0.388651	-1.310547	0.401367	0.188477
47470		12.536331	-1.371864	-3.153137	0.328599	2.771437	-0.485098	-1.312500	0.394531	0.154053
47471		13.058010	-0.922670	-3.291775	0.046003	2.799898	-0.551839	-1.323242	0.383057	0.117676
47472		13.301312	-0.606016	-3.198884	-0.196225	2.811767	-0.620362	-1.324951	0.371826	0.074951
47473		13.578331	-0.577067	-3.218166	-0.369787	2.845012	-0.694049	-1.326172	0.349121	0.038818
47474		13.475869	-0.835088	-2.447021	-0.540742	2.854202	-0.715401	-1.323486	0.344482	-0.001953
47475		13.233197	-0.489161	-1.457742	-0.574398	2.831111	-0.695636	-1.329590	0.328857	-0.033936
47476		13.010070	-0.114063	-0.845721	-0.725672	2.851355	-0.583784	-1.326904	0.322021	-0.070313
47477		12.830257	0.870460	-0.303042	-0.631362	2.812460	-0.440251	-1.326416	0.312988	-0.110840
47478		11.971222	1.652247	-0.355084	-0.733989	2.788281	-0.413041	-1.323486	0.299316	-0.140625
47479		11.512753	1.448819	-0.811600	-0.903192	2.766913	-0.403607	-1.316406	0.294678	-0.179199
47480		10.632836	1.222949	-0.654441	-0.913133	2.753810	-0.404801	-1.309082	0.285645	-0.213135
47481		9.546152	0.194347	-0.631070	-1.047333	2.668735	-0.476264	-1.304199	0.276611	-0.240967
47482		9.805958	1.442161	-0.697602	-1.194825	2.519143	-0.470780	-1.303955	0.274414	-0.268799
47483		8.993928	1.081042	-0.921524	-1.515950	2.513154	-0.347260	-1.285645	0.270020	-0.296387
47484		7.829976	0.751470	-0.052090	-1.693556	2.379201	-0.284435	-1.278564	0.267578	-0.328369
47485		7.831601	0.375004	0.073802	-1.842735	2.168477	-0.210289	-1.276367	0.272217	-0.341309
47486		7.329893	-1.021274	0.064586	-1.867884	2.025075	-0.231953	-1.269531	0.272217	-0.369141
47487		6.049788	0.429211	1.146042	-1.809705	1.857030	-0.088106	-1.255859	0.274414	-0.386230
47488		5.914190	-1.244787	0.428012	-1.948378	1.610019	-0.029241	-1.255859	0.276611	-0.399170
47489		5.743843	-1.395339	0.674839	-1.959981	1.438784	-0.006819	-1.249268	0.283447	-0.410156
47490		5.826389	-1.460021	0.423329	-1.998363	1.267010	-0.013008	-1.247314	0.292480	-0.416748
47491		5.935601	-0.940663	-0.136800	-2.165194	1.169664	-0.024129	-1.238525	0.301514	-0.429688
47492		5.658247	-1.114332	-0.267869	-2.140701	1.084526	-0.053738	-1.238770	0.308105	-0.436279
47493		5.440922	-1.256422	-0.322083	-1.864930	0.976906	-0.104448	-1.229736	0.310547	-0.436279
47494		5.633814	-1.643833	-0.260588	-1.421074	0.833607	-0.148456	-1.227783	0.319336	-0.445068
47495		6.013018	-1.859421	-0.008166	-0.840039	0.637953	-0.194741	-1.232178	0.321777	-0.451660
47496		6.328961	-1.827880	0.311870	-0.332494	0.418695	-0.234062	-1.227539	0.319336	-0.453613
47497		6.505862	-1.751211	0.807987	0.020624	0.187088	-0.258663	-1.229736	0.314941	-0.453613
47498		6.654807	-1.694463	1.502533	0.208102	-0.007070	-0.263892	-1.234131	0.308105	-0.457764
47499		6.425174	-1.709109	2.168350	0.290360	-0.174804	-0.255793	-1.236084	0.301270	-0.457520
47500		5.857934	-1.897034	2.746640	0.355698	-0.364191	-0.240621	-1.238281	0.301270	-0.442627
47501		5.319560	-1.689122	3.136401	0.376544	-0.583064	-0.212364	-1.240723	0.301270	-0.438232
47502		4.564769	-1.277162	3.424573	0.260942	-0.801340	-0.152346	-1.249756	0.299072	-0.434082
47503		3.992499	-0.692308	3.514978	0.078888	-1.056937	-0.075343	-1.254150	0.296875	-0.416992
47504		3.671418	-0.244983	3.624023	-0.061101	-1.312975	-0.031656	-1.261719	0.314941	-0.398193
47505		4.243238	-0.177266	3.587530	-0.039440	-1.601342	-0.001153	-1.265869	0.301514	-0.376465
47506		5.134920	-0.110244	3.458372	0.118838	-1.764553	0.030831	-1.275146	0.305908	-0.350830
47507		6.142665	0.156456	3.533707	0.176708	-1.793434	0.077140	-1.282227	0.310547	-0.329590
47508		7.435840	0.196018	3.844773	0.077949	-1.773112	0.157558	-1.296143	0.319336	-0.308350
47509		10.093786	-0.113578	4.756332	-0.067709	-1.693280	0.219798	-1.298828	0.323975	-0.291260
47510		12.943729	-0.307604	6.133518	-0.422102	-1.428298	0.254815	-1.303711	0.335205	-0.270264
47511		15.435640	-0.714100	6.799619	-0.790720	-0.944663	0.250935	-1.303955	0.339844	-0.259521
47512		17.418713	-1.472072	7.702691	-1.076624	-0.411408	0.243848	-1.306396	0.346436	-0.251221
47513		18.338113	-2.998863	9.274679	-1.163854	0.219043	0.206544	-1.309082	0.355469	-0.251465
47514		17.363511	-4.172996	10.919810	-0.953396	0.824907	0.096890	-1.300049	0.360107	-0.268555
47515		14.405971	-3.512785	10.882330	-0.636358	1.070528	-0.053466	-1.290771	0.357910	-0.281250
47516		11.024491	-2.496597	8.884764	-0.304418	0.953362	-0.194060	-1.299805	0.353271	-0.285645
47517		8.323224	-1.497404	8.050243	0.040341	0.660498	-0.295854	-1.302002	0.353271	-0.296387
47518		6.310240	-0.877630	7.502772	0.167364	0.258689	-0.366088	-1.297119	0.342041	-0.296143
47519		5.412533	-0.766092	5.184221	-0.054264	-0.065374	-0.414639	-1.296875	0.337402	-0.298096
47520		6.709504	-0.820980	1.525359	-0.656870	-0.261893	-0.403235	-1.294678	0.335205	-0.289551
47521		9.503487	-1.257724	-1.832550	-1.216617	-0.279320	-0.360960	-1.296875	0.335205	-0.278809
47522		11.586384	-2.003256	-2.950012	-1.223467	-0.078107	-0.269613	-1.296875	0.335205	-0.280762
47523		12.325150	-1.188678	-1.413080	-0.888774	-0.034726	-0.152197	-1.296875	0.335205	-0.278809
47524		12.721262	-1.196545	-0.982822	-0.247069	-0.236041	0.025415	-1.301514	0.335205	-0.276611
47525		13.788176	-2.316585	-0.979295	0.351576	-0.492761	0.162429	-1.299072	0.333008	-0.270020
47526		14.330705	-4.389681	1.295097	0.426485	-0.620660	0.136416	-1.299316	0.337402	-0.261719
47527		13.101166	-4.943378	4.413695	0.321762	-0.629053	0.037481	-1.294678	0.333008	-0.252930
47528		12.126944	-3.818347	4.566700	0.436423	-0.614467	-0.019135	-1.299316	0.335205	-0.252930
47529		11.355746	-0.714114	2.320089	0.862089	-0.560268	-0.070555	-1.290039	0.330811	-0.248291
47530		9.395082	2.489832	-0.426832	0.846163	-0.497903	-0.231594	-1.298828	0.317383	-0.237549
47531		6.906588	3.725449	-3.045757	0.472239	-0.503681	-0.465615	-1.294434	0.319580	-0.233154
47532		5.057092	3.639417	-4.971210	0.151435	-0.713084	-0.599729	-1.302734	0.299316	-0.221924
47533		4.813561	2.762269	-5.131642	0.359281	-1.134598	-0.575900	-1.300537	0.297119	-0.204834
47534		6.518914	2.409636	-2.533070	0.847222	-1.506965	-0.428917	-1.307129	0.288086	-0.187500
47535		9.444471	2.469616	0.839413	0.981320	-1.515578	-0.224764	-1.306885	0.281250	-0.174316
47536		12.059211	2.210398	2.574385	0.618288	-1.266994	-0.072626	-1.309326	0.283691	-0.155029
47537		13.243637	1.387414	2.383177	0.088317	-0.946346	-0.011722	-1.318604	0.283691	-0.135742
47538		12.413203	0.407430	1.845075	-0.235372	-0.701942	-0.039816	-1.316406	0.285889	-0.127197
47539		10.549130	-0.711567	1.228831	-0.286920	-0.641690	-0.105339	-1.318359	0.276855	-0.114258
47540		8.382468	-2.613720	0.798891	-0.001753	-0.730220	-0.164354	-1.320801	0.276855	-0.105713
47541		7.553081	-2.669424	0.916821	0.286184	-1.009113	-0.274350	-1.320801	0.276855	-0.088379
47542		7.493070	-2.960266	0.838403	0.516136	-1.220802	-0.329364	-1.318359	0.267822	-0.072998
47543		7.863212	-2.057849	1.118787	0.698724	-1.345017	-0.336241	-1.318359	0.263428	-0.057861
47544		8.621399	-1.210936	1.097624	0.854567	-1.420617	-0.307434	-1.322754	0.261230	-0.036377
47545		8.949808	-0.387320	1.270628	0.994130	-1.408812	-0.232373	-1.316162	0.261230	-0.019043
47546		8.963306	0.576938	1.278062	1.004375	-1.385266	-0.155207	-1.320801	0.259033	-0.004150
47547		9.132452	1.068915	0.977451	1.028823	-1.369496	-0.045386	-1.316162	0.259033	0.013184
47548		9.410045	1.447545	0.284382	1.054970	-1.298172	-0.030317	-1.318604	0.256836	0.030518
47549		9.571024	0.687341	0.113986	0.866771	-1.271844	0.006450	-1.318848	0.263672	0.043213
47550		10.064270	1.511428	0.307685	0.881163	-1.335578	-0.061229	-1.312012	0.259033	0.066895
47551		9.591044	1.162986	0.126340	0.622043	-1.289986	-0.089468	-1.319092	0.261475	0.081787
47552		9.225683	0.713536	0.332809	0.590749	-1.346742	-0.087785	-1.316895	0.265869	0.099121
47553		9.426725	0.957635	0.745530	0.487000	-1.411726	-0.096079	-1.316895	0.261475	0.116455
47554		9.431489	0.677584	1.019261	0.434812	-1.397449	-0.069837	-1.310303	0.261475	0.140137
47555		9.783704	1.138341	0.766532	0.491467	-1.370895	-0.121846	-1.312500	0.261475	0.159424
47556		9.601129	1.744975	0.897604	0.485697	-1.284711	-0.138910	-1.310547	0.261475	0.174561
47557		9.451331	2.625935	0.465664	0.482806	-1.281334	-0.113362	-1.315186	0.263916	0.195801
47558		10.518239	2.337363	-0.214512	0.390859	-1.308181	-0.053533	-1.301758	0.268311	0.200195
47559		10.434573	1.963196	-0.357623	0.570348	-1.198473	0.035731	-1.302002	0.272949	0.226074
47560		10.144380	1.173138	-1.184945	0.571212	-1.208961	0.012222	-1.299805	0.275146	0.238770
47561		9.570456	0.459847	-1.249550	0.591391	-1.185262	0.026850	-1.297852	0.277588	0.253906
47562		9.494244	0.310353	-1.030174	0.510629	-1.245307	0.056957	-1.291016	0.277588	0.266846
47563		9.431367	0.399794	-1.055879	0.314724	-1.278226	0.066039	-1.289063	0.281982	0.290527
47564		9.192002	0.436210	-1.164018	0.229794	-1.281519	0.066854	-1.287109	0.288818	0.299072
47565		9.067631	0.583714	-0.963248	0.249211	-1.231728	0.067044	-1.285156	0.291016	0.320557
47566		9.307232	0.711630	-0.935796	0.241490	-1.171682	0.057156	-1.282959	0.291260	0.331299
47567		9.563157	0.495380	-0.910705	0.175196	-1.065717	0.058838	-1.278564	0.295654	0.346191
47568		9.883179	0.121541	-1.095483	0.182174	-0.988972	0.057821	-1.276611	0.300293	0.356934
47569		9.831548	-0.182808	-1.195713	0.288160	-0.942522	0.072984	-1.272217	0.304688	0.374023
47570		9.418339	-0.124718	-1.251230	0.478243	-0.951029	0.101916	-1.272217	0.304688	0.382813
47571		9.172285	-0.038103	-1.440385	0.673044	-1.007615	0.144394	-1.267822	0.304688	0.393555
47572		9.228338	0.009831	-1.671224	0.750372	-1.059873	0.192756	-1.270508	0.318359	0.403809
47573		9.747993	-0.093318	-1.986604	0.677599	-1.042939	0.210643	-1.259766	0.329590	0.414551
47574		10.098008	-0.053088	-2.131423	0.558068	-0.940222	0.191035	-1.253174	0.334229	0.427490
47575		10.114090	0.029433	-1.819376	0.488564	-0.849822	0.152652	-1.248779	0.338623	0.436035
47576		10.208988	0.088574	-1.455043	0.557894	-0.823708	0.109589	-1.244385	0.343262	0.442383
47577		10.364770	-0.073222	-1.295098	0.722348	-0.810889	0.086121	-1.242676	0.356689	0.450684
47578		10.521208	-0.129549	-1.290278	0.905147	-0.796202	0.082615	-1.240479	0.356689	0.459473
47579		10.569444	-0.231774	-1.208253	1.026418	-0.768748	0.101328	-1.240967	0.368164	0.461182
47580		10.482460	-0.408147	-1.070333	1.066922	-0.745747	0.134862	-1.227539	0.370361	0.469971
47581		10.328672	-0.373868	-0.864392	1.069018	-0.748443	0.175365	-1.225342	0.375000	0.478516
47582		10.391714	0.093927	-0.813717	1.053279	-0.746011	0.211804	-1.225830	0.388428	0.482422
47583		10.662735	0.803377	-0.983421	1.076408	-0.680045	0.252404	-1.217041	0.397461	0.480225
47584		10.754296	1.493137	-1.072564	1.116045	-0.579713	0.286172	-1.213135	0.410889	0.488525
47585		10.885785	1.844607	-0.560953	1.141806	-0.519399	0.285485	-1.215332	0.410889	0.488525
47586		11.079180	2.035612	0.483679	1.185195	-0.455602	0.261760	-1.211426	0.431396	0.488281
47587		10.890360	2.429727	1.058984	1.100357	-0.392779	0.231470	-1.209473	0.437988	0.485840
47588		10.972004	2.866775	0.843302	0.991370	-0.326694	0.191507	-1.207275	0.444824	0.487793
47589		11.795334	3.456316	0.465094	0.850479	-0.200863	0.129930	-1.209717	0.444824	0.483643
47590		12.543888	3.844029	0.278523	0.532864	-0.074831	0.053801	-1.200684	0.449219	0.479248
47591		13.187975	2.841067	0.508122	0.245093	-0.010151	-0.023434	-1.209717	0.451660	0.481201
47592		13.715899	1.921643	1.044640	-0.061479	0.143925	-0.073826	-1.216797	0.453857	0.483154
47593		13.561020	0.990894	1.309296	-0.391343	0.405798	-0.056060	-1.218506	0.444824	0.472656
47594		13.531413	0.253036	1.066855	-0.486777	0.709972	-0.009398	-1.220703	0.437988	0.468506
47595		13.302524	-0.075047	1.246456	-0.541129	1.069323	0.027791	-1.225098	0.437988	0.455566
47596		13.130974	-0.608059	2.136228	-0.848935	1.372758	0.014511	-1.233643	0.428955	0.436279
47597		12.206044	-0.904384	1.371475	-1.150920	1.834876	-0.028029	-1.246826	0.419922	0.414795
47598		10.713983	-1.543395	-0.667669	-0.675979	2.330619	-0.030318	-1.255615	0.413086	0.386719
47599		9.301495	-1.777932	0.018361	-0.228489	2.567546	0.049753	-1.267090	0.421875	0.358398
47600		9.864350	-2.262679	-0.325542	0.088590	2.639902	-0.012771	-1.275635	0.415039	0.315430
47601		10.069799	-1.178653	-1.440313	0.487651	2.767678	-0.093900	-1.288818	0.412598	0.274414
47602		10.574081	-0.643451	-2.438867	0.265679	2.776099	-0.211926	-1.299805	0.408203	0.237793
47603		11.202815	-0.186618	-2.421986	-0.122335	2.655663	-0.327496	-1.303711	0.396729	0.208008
47604		11.845362	-0.258273	-2.409848	-0.372335	2.621325	-0.459581	-1.312500	0.389893	0.171387
47605		12.403126	0.194656	-2.380276	-0.582756	2.648012	-0.532011	-1.321045	0.380859	0.135010
47606		12.799661	0.221259	-2.084561	-0.844154	2.644521	-0.594556	-1.322510	0.367188	0.100830
47607		13.208420	-0.148252	-2.141314	-1.068697	2.625616	-0.679489	-1.328857	0.358154	0.070801
47608		13.433531	-0.971106	-2.380975	-1.358523	2.652472	-0.716207	-1.334717	0.337891	0.036865
47609		13.717503	-1.970913	-1.918857	-1.448384	2.635545	-0.692447	-1.341064	0.326416	0.002686
47610		13.990044	-2.045816	-1.320107	-1.388486	2.592911	-0.629859	-1.338379	0.317383	-0.027344
47611		13.703166	-1.430098	-0.921063	-1.198678	2.540726	-0.597374	-1.333252	0.306152	-0.052734
47612		13.496332	0.006601	-0.543222	-1.044240	2.438928	-0.440196	-1.334961	0.297119	-0.089111
47613		11.826871	-0.210176	-1.126601	-0.834136	2.502876	-0.372191	-1.325684	0.292480	-0.121094
47614		11.245890	0.013588	-0.868636	-0.809458	2.424344	-0.308483	-1.325195	0.283447	-0.153076
47615		10.766874	-0.239859	-0.899016	-0.762778	2.385506	-0.274200	-1.320313	0.274414	-0.180908
47616		9.322381	-1.540548	-0.949796	-0.755518	2.395696	-0.354643	-1.317627	0.270020	-0.215088
47617		9.434228	0.151110	-0.588680	-0.880413	2.275023	-0.354427	-1.310547	0.265381	-0.244873
47618		9.362992	0.450069	-0.633128	-1.050972	2.279732	-0.299510	-1.296631	0.260986	-0.272705
47619		8.717079	0.359185	-0.568004	-1.266483	2.204730	-0.249502	-1.296631	0.260986	-0.296387
47620		8.330185	0.603567	-0.474497	-1.376156	2.006352	-0.125425	-1.289795	0.260742	-0.319824
47621		8.098574	0.312012	-1.064105	-1.400448	1.902307	-0.017295	-1.282959	0.265381	-0.339111
47622		7.094905	-0.425997	-1.279376	-1.388815	1.797958	0.063064	-1.278320	0.265381	-0.356445
47623		6.399359	-0.446498	-1.351672	-1.333957	1.614211	0.095162	-1.264893	0.269775	-0.373535
47624		6.166034	-0.749894	-1.096317	-1.281100	1.392374	0.103962	-1.267090	0.269775	-0.386475
47625		6.221225	-2.371334	-1.450167	-1.300344	1.194285	-0.032482	-1.258057	0.274414	-0.399170
47626		5.442156	0.150590	-0.050387	-1.151977	1.052030	0.007477	-1.253906	0.283447	-0.401611
47627		5.668925	-0.560290	-0.640403	-1.397718	0.776789	0.014257	-1.251953	0.294678	-0.410400
47628		5.212421	-0.946682	-0.330178	-1.296753	0.619314	0.023788	-1.247314	0.290039	-0.407959
47629		4.913929	-0.988576	0.146416	-1.076889	0.341209	-0.042813	-1.251709	0.290039	-0.410400
47630		4.921929	-1.269092	0.095881	-0.885049	0.107617	-0.075543	-1.254150	0.296875	-0.410400
47631		5.121583	-1.132400	0.413577	-0.656320	-0.069800	-0.083519	-1.252197	0.299072	-0.406250
47632		5.306037	-1.129122	1.089771	-0.540077	-0.187358	-0.055640	-1.256592	0.301514	-0.402100
47633		5.335937	-1.337844	1.492213	-0.440603	-0.288296	-0.030125	-1.263428	0.299072	-0.395508
47634		5.565478	-1.391191	1.715138	-0.291129	-0.397653	-0.006987	-1.263428	0.301270	-0.389160
47635		6.041690	-1.440728	1.852656	-0.095648	-0.512803	0.041274	-1.263916	0.310303	-0.376465
47636		6.100566	-1.205596	2.244645	0.195510	-0.612443	0.060713	-1.270752	0.308105	-0.372314
47637		6.234166	-0.854896	3.032050	0.321199	-0.771995	0.036415	-1.270752	0.308105	-0.354980
47638		6.616941	-0.324954	3.667831	0.259183	-0.965226	0.025261	-1.275391	0.310303	-0.350830
47639		7.174735	-0.026040	4.292032	0.077846	-1.067615	0.024305	-1.282471	0.314941	-0.333984
47640		7.629595	0.097206	5.078430	-0.145186	-1.103306	0.024170	-1.289307	0.319336	-0.312744
47641		8.643076	-0.450906	5.321558	-0.350478	-1.112559	0.036924	-1.289551	0.321777	-0.302002
47642		9.163149	-0.746223	5.608573	-0.421673	-1.011041	0.033215	-1.301025	0.326172	-0.289307
47643		10.149187	-0.813717	6.523511	-0.518639	-0.837300	0.025809	-1.305908	0.330811	-0.278809
47644		11.039650	-0.959331	7.104113	-0.765682	-0.584676	0.032598	-1.308350	0.337402	-0.268311
47645		11.835729	-0.966006	7.304962	-1.072831	-0.425257	0.081737	-1.308594	0.344238	-0.261963
47646		13.083752	-1.441503	7.835558	-1.368538	-0.261734	0.117366	-1.308838	0.351074	-0.249268
47647		14.412316	-2.394829	8.730797	-1.445503	0.029650	0.145649	-1.306641	0.353271	-0.247070
47648		14.302860	-3.038510	8.919358	-1.191015	0.322750	0.110171	-1.306885	0.357910	-0.247070
47649		13.035738	-2.707047	8.255150	-0.746653	0.467462	0.041499	-1.309082	0.360107	-0.251465
47650		10.880356	-2.207543	7.376295	-0.387341	0.521774	-0.030912	-1.302490	0.364502	-0.264404
47651		8.594097	-2.272361	7.004973	-0.184755	0.491076	-0.127063	-1.300049	0.360107	-0.268555
47652		6.921747	-2.747935	6.273596	-0.171735	0.375024	-0.223241	-1.306641	0.357666	-0.270752
47653		6.230971	-3.476462	4.666591	-0.244609	0.167865	-0.274956	-1.304443	0.357666	-0.270752
47654		7.838491	-4.207550	2.678565	-0.285593	-0.121645	-0.296463	-1.308838	0.353271	-0.272949
47655		10.831855	-4.409646	0.406964	-0.245423	-0.451332	-0.304707	-1.310791	0.346436	-0.272705
47656		13.439790	-4.170800	-1.025598	-0.311920	-0.478376	-0.274091	-1.308594	0.344238	-0.261963
47657		14.356202	-3.178266	0.040614	-0.732310	-0.166151	-0.176679	-1.311035	0.351074	-0.255615
47658		13.979833	-1.749400	0.991325	-1.020361	0.172008	-0.070586	-1.306641	0.351074	-0.255615
47659		12.803133	-0.754518	0.619337	-0.837326	0.293643	-0.016312	-1.306641	0.355469	-0.253662
47660		11.606296	-0.844259	1.024195	-0.730972	0.255521	-0.072509	-1.302002	0.348877	-0.259766
47661		9.724495	-2.945454	2.126625	-0.506669	0.032391	-0.244865	-1.299561	0.344238	-0.253174
47662		7.674326	-3.497045	3.967051	0.217604	-0.416434	-0.376589	-1.303955	0.337646	-0.250977
47663		8.020223	-2.886960	4.294702	0.855352	-0.969378	-0.385185	-1.303711	0.326172	-0.233398
47664		8.969904	-1.754071	2.194644	1.240112	-1.234904	-0.353481	-1.310547	0.326172	-0.224854
47665		9.095983	-0.445259	-0.609261	1.391036	-1.307045	-0.369802	-1.307861	0.312744	-0.213867
47666		8.690431	1.067889	-2.588664	1.123887	-1.332648	-0.461618	-1.310059	0.308350	-0.192139
47667		8.205710	2.416134	-3.727496	0.634697	-1.341880	-0.583945	-1.311768	0.292480	-0.172607
47668		7.565709	3.855233	-3.372100	0.362920	-1.376463	-0.640693	-1.315918	0.279053	-0.163574
47669		7.635224	4.900087	-2.209016	0.358042	-1.417449	-0.592324	-1.318115	0.274658	-0.142090
47670		8.551865	4.710259	-0.364125	0.241765	-1.316535	-0.447632	-1.324951	0.270020	-0.126953
47671		9.802973	3.584924	1.196854	0.000276	-1.168299	-0.293494	-1.318115	0.265625	-0.101074
47672		10.688886	1.625575	1.759486	-0.229894	-1.068545	-0.156619	-1.322754	0.267822	-0.090332
47673		11.211094	0.262590	1.753150	-0.358975	-0.996274	-0.123067	-1.324951	0.263428	-0.077393
47674		10.253247	-1.013057	1.643397	-0.235338	-0.875995	-0.150444	-1.320557	0.265625	-0.060059
47675		9.226986	-0.878329	1.569943	0.090694	-0.896670	-0.243427	-1.322754	0.259033	-0.049316
47676		8.481285	-0.586167	1.309168	0.392852	-0.982490	-0.354116	-1.327148	0.254395	-0.036377
47677		8.218231	-0.918420	0.668142	0.660367	-1.128288	-0.423612	-1.327148	0.250000	-0.019043
47678		8.749821	-0.452688	0.326472	0.710393	-1.290087	-0.452865	-1.324707	0.240967	-0.001465
47679		8.857611	-1.055900	0.409389	0.627245	-1.409729	-0.413823	-1.324707	0.243164	0.013428
47680		9.137617	-0.298244	0.166372	0.733717	-1.520313	-0.364424	-1.331543	0.240967	0.037109
47681		9.319244	-0.550036	-0.506247	0.885450	-1.558619	-0.277949	-1.326904	0.231934	0.058838
47682		9.798207	0.904149	-0.883216	1.194637	-1.539143	-0.197576	-1.326904	0.231934	0.073975
47683		9.818386	0.217231	-1.286354	1.169213	-1.412315	-0.062394	-1.324951	0.232178	0.091064
47684		9.815508	1.247383	-0.948377	1.334628	-1.358555	-0.030866	-1.325195	0.238770	0.105957
47685		9.591141	1.098366	-0.982398	1.181375	-1.328018	-0.072179	-1.318359	0.234375	0.123535
47686		9.124132	1.596693	-0.346840	1.069902	-1.422037	-0.107001	-1.318359	0.229980	0.147217
47687		9.413478	1.787747	-0.294964	0.908982	-1.602981	-0.111123	-1.316406	0.236816	0.168457
47688		9.153406	1.806819	-0.562300	0.940930	-1.696807	-0.103986	-1.309814	0.239014	0.187988
47689		9.500207	2.118894	-0.780398	1.006272	-1.802850	-0.085263	-1.307861	0.243652	0.209473
47690		9.980422	2.478128	-0.719385	1.046872	-1.844021	-0.047865	-1.303467	0.243652	0.233154
47691		10.365402	2.291723	-0.978907	1.010298	-1.780366	-0.012498	-1.301514	0.252686	0.256592
47692		10.117079	1.635083	-1.449923	0.996267	-1.506809	0.016829	-1.301758	0.257324	0.275879
47693		9.913957	1.612653	-1.146269	0.960715	-1.319313	-0.028373	-1.294922	0.255127	0.295410
47694		9.668407	1.154140	-0.454787	0.966918	-1.124422	-0.052992	-1.290527	0.257324	0.301758
47695		9.689801	0.689677	0.075181	1.030289	-1.012512	-0.057930	-1.288574	0.261719	0.316895
47696		9.835434	0.424340	0.151515	1.042318	-0.923701	-0.062272	-1.288818	0.264160	0.325439
47697		9.665181	0.244417	-0.241953	0.956154	-0.865131	-0.063489	-1.282227	0.270996	0.333984
47698		9.380400	0.044218	-0.899617	0.879489	-0.884919	-0.036023	-1.284668	0.277588	0.344482
47699		9.474057	0.434929	-1.028998	0.757564	-0.983949	0.007201	-1.278076	0.282227	0.357422
47700		9.573116	0.506849	-1.173532	0.612209	-1.061265	0.055869	-1.273926	0.286621	0.370117
47701		9.590956	0.416567	-1.467062	0.602303	-1.087656	0.117609	-1.271973	0.293457	0.385254
47702		9.580777	0.329836	-1.829583	0.674592	-1.078079	0.155324	-1.269775	0.295898	0.397949
47703		9.590420	0.403348	-2.013139	0.767617	-1.041605	0.182571	-1.258789	0.300293	0.406738
47704		9.699528	0.436126	-2.130889	0.796673	-0.986695	0.184569	-1.263672	0.311523	0.423584
47705		9.715861	0.580400	-2.109225	0.800887	-0.953057	0.180742	-1.254639	0.311768	0.432373
47706		9.716787	0.704667	-1.926187	0.769090	-0.923822	0.175707	-1.250488	0.322998	0.440674
47707		9.762858	0.661718	-1.694700	0.768680	-0.911268	0.172345	-1.248779	0.332031	0.451172
47708		9.902331	0.539028	-1.464840	0.771839	-0.907999	0.166339	-1.242188	0.341064	0.457520
47709		9.974766	0.452261	-1.282299	0.797091	-0.903669	0.166750	-1.239990	0.343262	0.468262
47710		10.024052	0.413528	-1.207768	0.832460	-0.909247	0.163555	-1.233643	0.354492	0.479004
47711		10.282890	0.344543	-1.145279	0.849312	-0.907346	0.182958	-1.231689	0.361328	0.489502
47712		10.689643	0.107385	-1.012908	0.865742	-0.857434	0.197585	-1.227783	0.375000	0.493652
47713		10.901133	-0.160199	-0.801028	0.931868	-0.776240	0.205640	-1.223389	0.379395	0.508545
47714		10.983650	-0.353710	-0.459134	1.044064	-0.693221	0.206559	-1.216797	0.386230	0.506348
47715		10.950702	-0.350089	-0.043453	1.168129	-0.590268	0.203549	-1.215088	0.397461	0.510498
47716		10.895008	-0.049825	0.210939	1.212136	-0.451569	0.207997	-1.215088	0.402100	0.508057
47717		10.599227	0.288856	0.084540	1.226054	-0.328645	0.227999	-1.215820	0.419922	0.507813
47718		10.100197	0.799258	-0.104902	1.316175	-0.239369	0.250183	-1.204590	0.426758	0.503418
47719		9.922272	1.450609	-0.345964	1.362006	-0.186526	0.273758	-1.211426	0.431396	0.496826
47720		10.096837	2.132216	-0.646724	1.213876	-0.154242	0.270638	-1.205322	0.447021	0.494385
47721		10.250892	1.402237	-1.159386	1.010656	-0.137253	0.270035	-1.209961	0.453857	0.491943
47722		10.618709	1.604242	-0.839615	0.790240	-0.184188	0.253397	-1.205566	0.460693	0.496094
47723		10.918598	0.967052	-0.353231	0.551944	-0.213797	0.237839	-1.206055	0.471924	0.491699
47724		11.079009	0.627623	0.474861	0.479731	-0.215474	0.252044	-1.199219	0.471924	0.491699
47725		10.976414	1.018541	1.237911	0.461671	-0.188659	0.297135	-1.199463	0.478760	0.491455
47726		11.634326	1.978926	1.501153	0.533767	-0.083590	0.299683	-1.202148	0.489990	0.484863
47727		12.235767	2.545686	1.826852	0.360830	0.107939	0.274711	-1.208740	0.489746	0.480469
47728		12.733891	1.944670	1.323913	0.232951	0.270090	0.210787	-1.206543	0.492188	0.478271
47729		13.350295	1.670691	1.393479	0.117934	0.493691	0.143841	-1.217773	0.491943	0.465088
47730		13.372091	1.567820	1.746982	-0.339282	0.919211	0.087749	-1.219971	0.491943	0.452148
47731		13.313551	1.333997	1.776784	-0.949360	1.352199	0.002561	-1.226318	0.480713	0.441650
47732		12.763636	1.041030	0.576601	-1.226589	1.809175	-0.116166	-1.244141	0.473877	0.422119
47733		11.917025	0.282096	-0.042557	-1.049969	2.212248	-0.173552	-1.250732	0.469238	0.398438
47734		11.829094	-1.821189	0.357948	-1.162697	2.414910	-0.173616	-1.272705	0.460205	0.370361
47735		12.645365	-3.107788	-0.723168	-0.647169	2.624357	-0.271553	-1.279053	0.451172	0.342529
47736		12.692888	-2.103752	-1.400318	-0.189373	2.782016	-0.405297	-1.290039	0.444336	0.301758
47737		13.097281	-1.046064	-1.838597	-0.227259	2.702004	-0.567587	-1.302979	0.430664	0.269531
47738		13.688280	0.023166	-2.800426	-0.315646	2.567622	-0.631260	-1.311523	0.419434	0.230957
47739		14.642248	0.837230	-3.465479	-0.506059	2.517135	-0.726069	-1.326660	0.405762	0.198730
47740		14.679918	0.943306	-3.031134	-0.740797	2.540065	-0.769738	-1.325928	0.387695	0.166992
47741		14.426349	0.376374	-2.707023	-1.181831	2.587837	-0.803477	-1.336426	0.374023	0.130615
47742		13.790152	-0.721699	-2.325950	-1.543677	2.691260	-0.812591	-1.347168	0.360352	0.096191
47743		13.464792	-1.705173	-1.876412	-1.833518	2.729965	-0.807524	-1.348633	0.342285	0.064453
47744		13.137887	-1.574333	-1.696990	-2.071146	2.697916	-0.721122	-1.361572	0.326416	0.034424
47745		12.656262	-1.681228	-1.410876	-2.079638	2.692221	-0.561952	-1.358887	0.317383	0.000244
47746		12.450649	-1.995260	-1.530698	-1.785029	2.618356	-0.489856	-1.365234	0.312988	-0.029785
47747		11.428101	-1.904552	-1.765558	-1.434601	2.617456	-0.364092	-1.357910	0.299316	-0.065918
47748		10.680704	-1.600398	-1.686768	-1.035225	2.537407	-0.305610	-1.355225	0.297119	-0.102295
47749		9.814288	-1.986621	-1.428541	-0.731761	2.485040	-0.249382	-1.357178	0.288086	-0.134521
47750		9.353957	-2.267025	-1.020477	-0.421890	2.351053	-0.253161	-1.349854	0.281250	-0.168457
47751		8.837205	-0.503772	-0.385434	-0.286077	2.289416	-0.192482	-1.343018	0.281250	-0.205078
