// General information: 
//  MT Manager version: 2021.0.0 
//  XDA version: 2021.0.0 build 5908 rev 109668 built on 2021-04-19
// Device information: 
//  DeviceId: 00B4406E
//  ProductCode: MTW2-3A7G6
//  Firmware Version: 4.4.0
//  Hardware Version: 1.1.0
// Device settings: 
//  Filter Profile: human(46.1)
//  Option Flags: Orientation Smoother Disabled, Position/Velocity Smoother Disabled, Continuous Zero Rotation Update Disabled, AHS Disabled, ICC Disabled
// Coordinate system: ENU
PacketCounter	SampleTimeFine	Acc_X	Acc_Y	Acc_Z	Gyr_X	Gyr_Y	Gyr_Z	Mag_X	Mag_Y	Mag_Z
46467		11.773678	1.947838	1.683916	0.594433	-0.750902	0.393905	-1.409424	0.322754	-0.451660
46468		14.208847	1.668318	2.814674	0.457866	-0.828663	0.400712	-1.409424	0.320557	-0.438477
46469		14.895062	0.827152	5.366236	0.769754	-0.792288	0.390362	-1.418457	0.327148	-0.432373
46470		13.843818	0.853844	6.412629	0.908734	-0.838905	0.337370	-1.420654	0.322754	-0.423584
46471		14.100926	1.795339	5.585283	0.406016	-0.995576	0.037459	-1.418457	0.322754	-0.408447
46472		14.654171	2.697207	4.494222	0.036697	-0.720360	-0.229934	-1.429199	0.313965	-0.412598
46473		12.733760	3.955811	5.060021	-0.216396	-0.095313	-0.239155	-1.422607	0.316162	-0.408447
46474		9.389682	3.410997	3.751419	-0.728337	0.047370	-0.146288	-1.429443	0.320557	-0.404297
46475		8.139328	1.143390	0.876825	-0.996071	-0.262721	-0.038530	-1.431396	0.311523	-0.397461
46476		7.637906	-1.213315	-1.705712	-1.248943	-0.425858	0.143121	-1.431641	0.318115	-0.384766
46477		6.253380	-3.788931	-4.083449	-1.364017	-0.641283	0.440064	-1.434570	0.338135	-0.365967
46478		5.037939	-5.478605	-4.623531	-0.809757	-1.158508	0.731625	-1.437012	0.344727	-0.351074
46479		5.531262	-5.287745	-2.899537	-0.233710	-1.761677	0.890772	-1.439697	0.353516	-0.321045
46480		7.267680	-4.028681	-0.770447	-0.490815	-2.029777	0.780330	-1.451416	0.368896	-0.289307
46481		9.316464	-2.988693	0.035285	-1.177268	-1.856813	0.446416	-1.447510	0.377686	-0.259277
46482		10.952451	-2.227062	0.408552	-1.391976	-1.481977	0.123275	-1.454346	0.382080	-0.240234
46483		12.285204	-1.663344	0.652240	-1.209151	-1.157481	-0.080249	-1.461182	0.384277	-0.216553
46484		12.621415	-1.152645	0.997747	-0.853885	-0.951831	-0.193769	-1.463379	0.379639	-0.201416
46485		12.181967	-0.977997	0.671476	-0.504804	-0.798889	-0.243785	-1.463379	0.379639	-0.188477
46486		10.742364	-0.474097	0.723575	-0.155416	-0.689297	-0.191847	-1.474365	0.379639	-0.175537
46487		9.378092	0.019835	0.335451	-0.003111	-0.775666	-0.055338	-1.474365	0.377441	-0.162598
46488		8.006368	0.297537	0.352169	-0.046513	-0.933337	0.129843	-1.470215	0.377441	-0.147461
46489		7.027092	0.258568	0.983264	-0.212794	-1.228970	0.307816	-1.474854	0.386230	-0.128174
46490		6.886977	0.065938	1.369662	-0.455830	-1.520626	0.421864	-1.477539	0.390625	-0.096191
46491		7.373934	-0.351051	1.197507	-0.803071	-1.714616	0.410885	-1.479980	0.397217	-0.076904
46492		8.317066	-0.781662	0.512952	-1.142978	-1.757660	0.347028	-1.480469	0.406006	-0.049072
46493		9.025257	-1.381491	-0.222281	-1.492659	-1.665530	0.206367	-1.478760	0.405762	-0.010254
46494		9.852940	-2.032973	-0.977483	-1.623840	-1.564922	0.090219	-1.483398	0.405762	0.020020
46495		10.072177	-2.365924	-1.051960	-1.569209	-1.408286	-0.039663	-1.481445	0.412354	0.043457
46496		10.542969	-2.962296	-1.183039	-1.310436	-1.249254	-0.168621	-1.481445	0.403564	0.069580
46497		10.186439	-3.105803	-0.788284	-1.103824	-1.107956	-0.236885	-1.485840	0.403320	0.084717
46498		10.665870	-2.791071	-0.856704	-0.887557	-1.087233	-0.179091	-1.488281	0.403320	0.110596
46499		10.051334	-2.389119	-0.441875	-0.603678	-1.002368	-0.103930	-1.486084	0.396729	0.121582
46500		9.161091	-1.979543	0.623562	-0.325833	-1.025939	-0.040262	-1.484131	0.403320	0.140869
46501		9.227579	-1.539743	0.920674	-0.174080	-1.142785	0.024401	-1.482178	0.401123	0.158203
46502		9.300133	-1.071154	0.905507	-0.242470	-1.214338	0.089342	-1.475830	0.405518	0.175293
46503		9.420184	-1.288224	0.603490	-0.394984	-1.217584	0.105927	-1.473877	0.403076	0.201172
46504		9.609896	-1.091374	0.443967	-0.585284	-1.103473	0.075888	-1.476318	0.407471	0.218262
46505		9.648815	-1.098009	0.183428	-0.856106	-0.945492	0.038723	-1.476318	0.405273	0.235596
46506		9.599370	-0.788690	0.239014	-1.149949	-0.775960	0.006106	-1.474121	0.405273	0.248779
46507		9.463838	-0.963404	0.133195	-1.389356	-0.648565	-0.023487	-1.471924	0.398682	0.268311
46508		9.306338	-1.142710	-0.004757	-1.503473	-0.605601	-0.038794	-1.465332	0.389648	0.283691
46509		9.286567	-1.289012	-0.520775	-1.560394	-0.632335	-0.043641	-1.469971	0.391846	0.296631
46510		9.366869	-1.630719	-1.302295	-1.564847	-0.677151	-0.021290	-1.467773	0.389648	0.318115
46511		9.274195	-1.052726	-1.544810	-1.504999	-0.729436	0.005115	-1.469971	0.380615	0.337891
46512		9.293411	-1.122481	-1.921102	-1.540191	-0.801249	-0.000480	-1.465576	0.376221	0.355225
46513		9.555749	-1.382957	-2.533448	-1.464891	-0.833803	-0.013125	-1.461182	0.371826	0.372559
46514		9.511980	-1.489155	-2.526175	-1.345280	-0.775148	-0.036961	-1.465576	0.367432	0.385742
46515		9.251525	-1.518914	-2.364794	-1.292765	-0.732728	-0.072560	-1.461426	0.364990	0.403076
46516		9.088688	-1.411943	-2.070958	-1.271984	-0.694749	-0.107757	-1.452637	0.362793	0.424805
46517		9.070842	-1.266150	-1.750711	-1.238128	-0.703686	-0.123325	-1.457031	0.354004	0.437988
46518		9.231267	-1.002297	-1.474048	-1.187265	-0.741914	-0.130046	-1.454834	0.349365	0.453125
46519		9.367922	-0.734314	-1.179217	-1.143913	-0.784714	-0.147215	-1.452393	0.333984	0.466553
46520		9.370976	-0.645448	-1.086847	-1.072594	-0.857011	-0.177084	-1.445801	0.331787	0.481689
46521		9.485666	-0.612540	-1.317476	-0.971469	-0.916970	-0.214235	-1.439453	0.329346	0.507813
46522		9.428216	-0.723462	-1.648378	-0.898682	-0.940201	-0.264667	-1.437256	0.322754	0.523193
46523		9.316465	-0.925743	-1.815257	-0.849005	-0.935457	-0.313060	-1.434814	0.307129	0.540771
46524		9.344130	-1.167039	-1.804020	-0.848661	-0.931314	-0.352903	-1.432373	0.300537	0.549561
46525		9.440169	-1.537073	-1.502357	-0.824845	-0.910616	-0.376753	-1.425781	0.291748	0.571533
46526		9.493216	-1.462280	-1.182507	-0.765956	-0.904604	-0.380218	-1.423584	0.284912	0.586914
46527		9.606151	-1.464849	-1.138226	-0.678425	-0.922875	-0.384901	-1.421387	0.278320	0.600098
46528		9.900592	-1.279013	-1.120096	-0.583012	-0.902134	-0.397922	-1.414551	0.262695	0.622070
46529		10.002539	-0.826306	-1.131385	-0.553601	-0.850668	-0.400807	-1.410156	0.258301	0.637207
46530		9.918346	-0.599618	-1.323908	-0.577277	-0.804124	-0.402303	-1.407959	0.253906	0.650391
46531		10.037527	-0.425747	-1.628144	-0.581966	-0.744486	-0.410924	-1.409912	0.242676	0.659424
46532		10.158648	-0.617842	-1.491428	-0.510462	-0.655300	-0.415680	-1.405518	0.236084	0.672607
46533		10.231790	-0.931324	-1.451740	-0.511428	-0.593857	-0.409768	-1.398926	0.227295	0.681396
46534		10.262788	-1.167075	-1.409473	-0.538200	-0.556380	-0.396084	-1.400879	0.218262	0.692383
46535		10.214729	-1.021511	-1.130057	-0.595388	-0.542307	-0.370035	-1.396484	0.213867	0.697021
46536		10.101766	-1.029844	-1.166311	-0.648092	-0.536110	-0.344751	-1.389648	0.202881	0.714600
46537		10.035407	-1.152559	-1.301009	-0.626965	-0.538554	-0.320662	-1.389648	0.198242	0.718994
46538		10.058622	-1.349301	-1.500077	-0.511592	-0.536620	-0.287606	-1.385254	0.191650	0.723633
46539		10.351769	-1.344504	-1.491597	-0.394963	-0.534216	-0.259652	-1.385010	0.182861	0.739014
46540		10.813368	-0.938533	-1.002339	-0.407575	-0.479222	-0.240510	-1.380615	0.178467	0.743408
46541		11.121328	-0.533640	-0.317807	-0.492460	-0.406991	-0.237881	-1.378418	0.171631	0.754395
46542		11.932132	-0.580512	-0.007232	-0.617175	-0.310150	-0.260612	-1.378174	0.165039	0.756836
46543		13.039915	-1.339606	0.100046	-0.622342	-0.186070	-0.255870	-1.371338	0.158447	0.759033
46544		13.490836	-1.938673	0.047337	-0.496349	-0.085959	-0.207808	-1.380127	0.154053	0.759277
46545		13.344766	-1.981175	0.118569	-0.358223	-0.010263	-0.133561	-1.377686	0.142822	0.759521
46546		13.834368	-1.881832	-0.088539	-0.128684	0.243366	-0.074248	-1.379883	0.149414	0.750732
46547		14.037293	-1.960548	0.152452	0.195528	0.676954	-0.030241	-1.384033	0.147217	0.737793
46548		13.525956	-2.092328	1.594512	0.408439	1.013698	-0.007879	-1.390625	0.151855	0.724609
46549		13.167491	-1.462455	2.907949	0.606349	1.391475	-0.024803	-1.401611	0.158447	0.696289
46550		12.268737	-0.587078	2.583153	0.665015	1.873197	0.020748	-1.423096	0.158447	0.665771
46551		11.767562	-0.005296	0.240600	0.443463	2.217675	0.084892	-1.427246	0.163086	0.631104
46552		11.834468	-0.151425	0.742645	0.526857	2.703262	0.103350	-1.448975	0.167480	0.592041
46553		11.061087	1.117814	1.094037	0.577216	2.872858	0.156070	-1.463867	0.169678	0.550781
46554		11.550172	0.519071	-1.737551	0.085710	2.804857	0.263039	-1.476807	0.176514	0.507324
46555		11.803085	-0.332647	-3.720889	-0.005858	2.691286	0.433717	-1.491699	0.176514	0.459717
46556		12.124332	0.072432	-3.602061	0.284808	2.508740	0.620311	-1.498535	0.192139	0.427002
46557		12.781287	-0.237207	-3.604982	0.593353	2.368849	0.712511	-1.500488	0.203125	0.383301
46558		12.778471	-0.138090	-3.355550	0.976168	2.328079	0.766585	-1.511719	0.218750	0.352783
46559		12.016187	0.113527	-2.364884	1.215902	2.262363	0.766299	-1.513916	0.229980	0.313477
46560		11.834160	1.090282	-1.656881	1.264870	2.236211	0.693653	-1.515869	0.236572	0.274414
46561		11.452890	1.477210	-1.479618	1.163990	2.269627	0.614041	-1.522461	0.247803	0.233154
46562		11.711928	1.645422	-1.117025	1.121738	2.270833	0.527776	-1.522217	0.256836	0.187500
46563		11.977143	2.721548	-0.340827	1.001546	2.280599	0.421988	-1.521973	0.256836	0.155273
46564		11.930314	3.427324	0.224020	0.583153	2.234049	0.368920	-1.521729	0.263672	0.116211
46565		12.026778	2.157509	0.030535	0.178102	2.162217	0.364964	-1.521729	0.268066	0.081543
46566		11.794727	1.099805	-0.087377	-0.023658	2.161752	0.349584	-1.519287	0.270508	0.051270
46567		11.245375	0.680596	-0.557175	-0.048848	2.219182	0.424375	-1.519043	0.277100	0.014404
46568		10.761275	-0.025142	-0.633012	-0.047170	2.163227	0.474100	-1.508057	0.279541	-0.017822
46569		10.701773	-2.271974	-1.316523	0.096236	2.146042	0.547008	-1.510254	0.286133	-0.048096
46570		9.681704	-2.674948	-1.594119	0.615673	2.210404	0.551658	-1.505371	0.288574	-0.089111
46571		8.718696	-2.351872	-1.159154	0.974858	2.096824	0.485000	-1.498779	0.292969	-0.128174
46572		9.225202	-2.424258	-1.745507	1.229508	2.020317	0.392885	-1.491943	0.293213	-0.158203
46573		9.501469	-1.456449	-1.750553	1.503422	2.069104	0.373956	-1.482666	0.291016	-0.201172
46574		9.583044	-0.958261	-1.296904	1.530644	2.021940	0.360390	-1.473877	0.293457	-0.224854
46575		9.390670	-0.684248	-0.872514	1.642761	2.047231	0.286552	-1.464844	0.291260	-0.263672
46576		9.498639	-0.956747	-0.222743	1.675922	1.989237	0.208545	-1.455566	0.286865	-0.300049
46577		9.036762	0.587478	0.641838	1.604588	1.985895	0.136630	-1.448486	0.275879	-0.327637
46578		8.636351	0.389641	1.001819	1.209780	2.006196	0.075238	-1.435059	0.273926	-0.362061
46579		8.199651	0.051726	0.901493	0.948880	1.882697	0.106907	-1.428223	0.271729	-0.389893
46580		7.930784	-0.038332	0.826173	0.845523	1.784127	0.128853	-1.425781	0.269531	-0.415771
46581		7.489810	-0.494159	0.723377	0.680073	1.609617	0.198357	-1.410156	0.267334	-0.441406
46582		7.322660	-0.843978	0.251396	0.653589	1.434925	0.256885	-1.401611	0.274170	-0.460938
46583		7.045566	-0.966983	0.269111	0.674934	1.280134	0.299961	-1.396973	0.271973	-0.480225
46584		6.808919	-1.070262	0.338145	0.800133	1.122545	0.339646	-1.385742	0.269775	-0.492920
46585		6.358843	-0.998099	0.631446	0.988344	0.982276	0.359075	-1.383545	0.267578	-0.505859
46586		6.090593	-0.729527	1.037522	1.080251	0.828100	0.366066	-1.374512	0.260986	-0.520752
46587		5.792611	-0.463312	1.470187	1.006331	0.678867	0.378418	-1.361328	0.263428	-0.527100
46588		5.665551	-0.286238	1.678086	0.797139	0.507909	0.400883	-1.370117	0.270020	-0.538086
46589		5.624019	-0.078315	1.734282	0.618999	0.344378	0.422627	-1.361572	0.272217	-0.535889
46590		5.536906	0.110833	1.679782	0.530234	0.198118	0.442377	-1.363770	0.276611	-0.549072
46591		5.454558	0.160550	1.637357	0.540219	0.043676	0.437198	-1.361572	0.278809	-0.538330
46592		5.332769	0.301532	1.604235	0.601680	-0.102024	0.403362	-1.354980	0.281006	-0.555420
46593		5.286338	0.322007	1.788659	0.635741	-0.247323	0.350005	-1.355225	0.283203	-0.542725
46594		5.264586	0.392957	2.230985	0.622317	-0.413324	0.285042	-1.361816	0.283203	-0.540527
46595		5.627345	0.258965	2.567574	0.576032	-0.598336	0.257735	-1.368408	0.285400	-0.530029
46596		6.249699	0.112174	2.603340	0.609860	-0.720416	0.232874	-1.370605	0.285400	-0.521240
46597		6.669067	0.065055	2.804455	0.678033	-0.766862	0.214671	-1.375244	0.294189	-0.519531
46598		7.160126	-0.052416	3.313895	0.672729	-0.836151	0.215805	-1.379883	0.296387	-0.508789
46599		7.904590	-0.280789	3.915573	0.604238	-0.942513	0.202902	-1.386475	0.294189	-0.495850
46600		8.693033	-0.387306	4.682297	0.543608	-0.996811	0.190820	-1.388916	0.298584	-0.482910
46601		9.359906	-0.549322	5.863579	0.571138	-0.960527	0.192151	-1.397705	0.298584	-0.474609
46602		9.778594	-0.614987	6.792881	0.724043	-0.808011	0.199400	-1.402100	0.300781	-0.466064
46603		9.795378	-0.583496	7.104550	0.885185	-0.638077	0.197773	-1.399902	0.298584	-0.465820
46604		10.055276	-0.561478	7.198586	0.994937	-0.498528	0.151063	-1.410889	0.302979	-0.463867
46605		9.880903	0.204092	7.968573	0.944832	-0.317174	0.107578	-1.410889	0.296387	-0.457275
46606		9.586089	0.735971	8.509047	0.520552	-0.188290	0.036942	-1.408691	0.293945	-0.459473
46607		10.024637	1.221993	8.308888	0.091683	-0.131067	-0.035699	-1.415283	0.298584	-0.463867
46608		10.673411	1.430138	8.090074	-0.077762	-0.093033	-0.037519	-1.417480	0.300781	-0.457520
46609		10.966594	1.334796	7.529698	-0.068073	-0.117679	0.046163	-1.415527	0.302979	-0.457520
46610		10.840216	0.910719	6.825336	-0.015194	-0.077985	0.154816	-1.413330	0.305176	-0.457520
46611		10.187407	0.803792	6.093286	0.136714	0.005904	0.233630	-1.417725	0.305176	-0.453369
46612		8.582567	0.468406	5.751995	0.396737	0.046261	0.315371	-1.408936	0.309570	-0.459717
46613		6.909934	0.260130	5.918989	0.635805	-0.046088	0.360445	-1.406738	0.311768	-0.468506
46614		5.712532	-0.143272	5.638252	0.830552	-0.247314	0.360055	-1.417725	0.309570	-0.462158
46615		5.551757	-0.109935	3.627618	0.973757	-0.516448	0.335536	-1.413574	0.313965	-0.459961
46616		7.449477	0.348914	2.163994	1.042216	-0.707419	0.284503	-1.422363	0.318359	-0.458008
46617		10.382825	2.027758	1.357101	1.064632	-0.887057	0.234524	-1.417969	0.313965	-0.449219
46618		13.399711	3.340130	1.436996	0.695744	-1.004048	0.173002	-1.424316	0.304932	-0.429688
46619		16.102346	3.190146	2.899370	0.517566	-1.017558	0.088433	-1.431152	0.311768	-0.425537
46620		17.182038	2.520748	4.769224	0.482336	-0.893535	0.003206	-1.433350	0.307129	-0.412598
46621		17.058112	1.209734	4.352307	0.162771	-1.019210	-0.115918	-1.440186	0.311523	-0.404053
46622		17.318723	0.416886	3.918144	0.173406	-0.975291	-0.189158	-1.446533	0.300537	-0.388672
46623		15.810273	2.354098	6.117238	0.473915	-0.373605	-0.154918	-1.446533	0.300537	-0.390869
46624		12.451562	2.950944	7.081733	0.144078	0.285335	-0.149635	-1.444092	0.291504	-0.401367
46625		9.423508	0.997579	4.303095	-0.306980	0.364846	-0.100866	-1.443848	0.287109	-0.394775
46626		7.479744	-1.402476	-1.550308	-0.688386	-0.177627	0.074883	-1.446289	0.289307	-0.390625
46627		6.151633	-3.071190	-5.430343	-0.813173	-0.463719	0.377230	-1.446533	0.298340	-0.386475
46628		3.428401	-4.337845	-5.943885	-0.906407	-0.939347	0.664414	-1.449463	0.318115	-0.363281
46629		3.406282	-4.436804	-6.242813	-0.927819	-1.858263	0.816771	-1.458496	0.324707	-0.326904
46630		5.608464	-4.517837	-4.373252	-1.036718	-2.372792	0.771793	-1.457031	0.335693	-0.292725
46631		8.077213	-4.756495	-1.575001	-1.068491	-2.188224	0.531813	-1.466309	0.346680	-0.258789
46632		9.940006	-4.276573	0.452397	-0.943918	-1.742499	0.219336	-1.468994	0.355469	-0.237305
46633		12.054593	-3.231852	1.205322	-0.797941	-1.507656	-0.008977	-1.475586	0.355469	-0.207275
46634		13.292907	-2.603979	0.659897	-0.474108	-1.232804	-0.183252	-1.475586	0.350830	-0.194092
46635		12.768481	-0.032566	1.376020	-0.171987	-0.966609	-0.255800	-1.480225	0.350830	-0.170410
46636		11.346892	0.179507	0.665647	-0.056835	-0.850316	-0.191315	-1.484619	0.346436	-0.164063
46637		9.617218	0.584857	0.716828	0.023968	-0.835266	-0.111615	-1.482422	0.348633	-0.155273
46638		7.988480	1.139422	0.949792	-0.057565	-0.949222	0.024771	-1.487061	0.346191	-0.138184
46639		7.404211	1.733175	1.154642	-0.309223	-1.184331	0.259624	-1.485107	0.353027	-0.114502
46640		6.893737	1.668277	1.514768	-0.634048	-1.368522	0.432879	-1.489746	0.357178	-0.084473
46641		7.459702	0.707595	1.220334	-0.917970	-1.472694	0.538829	-1.483887	0.370605	-0.069580
46642		8.295795	-0.777641	1.000688	-1.005021	-1.453081	0.543567	-1.488525	0.377197	-0.039795
46643		8.685667	-1.138191	0.879027	-1.115187	-1.293783	0.426044	-1.484619	0.381592	-0.016113
46644		9.477191	-2.628303	0.260931	-1.261360	-1.194354	0.204446	-1.484863	0.385986	0.005371
46645		9.977858	-2.644662	0.013299	-1.200366	-1.079245	0.007270	-1.487061	0.381348	0.027100
46646		10.917668	-2.533259	-0.592005	-1.026279	-0.952411	-0.122682	-1.482910	0.387939	0.044189
46647		10.443353	-2.616954	-0.288606	-0.884332	-0.889301	-0.146710	-1.489502	0.381348	0.061523
46648		10.688995	-3.275428	-0.503373	-0.624044	-0.881769	-0.111337	-1.489746	0.383545	0.076660
46649		10.393641	-2.861284	-0.617123	-0.228480	-0.706411	-0.008950	-1.489746	0.381348	0.089600
46650		9.101029	-1.605966	0.579240	-0.024907	-0.662987	0.085701	-1.492188	0.385742	0.095947
46651		8.833059	-1.108643	0.541484	0.126147	-0.819325	0.158475	-1.492432	0.390137	0.113037
46652		8.344868	-0.430256	0.747000	0.061739	-0.976009	0.226266	-1.488037	0.390137	0.125977
46653		8.504693	-0.163601	0.754942	-0.164972	-1.148717	0.169857	-1.486328	0.396729	0.147461
46654		8.891300	0.103136	0.234191	-0.488071	-1.163572	0.122124	-1.484375	0.398926	0.164551
46655		9.018165	-0.011516	-0.186949	-0.751073	-1.117007	0.053646	-1.482178	0.392090	0.188477
46656		9.258222	-0.028452	-0.468138	-0.985540	-1.076793	-0.027967	-1.478271	0.400879	0.214111
46657		9.475623	-0.215366	-0.640561	-1.157078	-1.058763	-0.086112	-1.478027	0.389893	0.220947
46658		9.583561	-0.663043	-0.549895	-1.209347	-1.029667	-0.095917	-1.478271	0.389893	0.246826
46659		9.576343	-1.348436	-0.572808	-1.223907	-0.986374	-0.080223	-1.476074	0.387451	0.270752
46660		9.292781	-1.344577	-0.559639	-1.125305	-0.958198	-0.036460	-1.476074	0.383057	0.283691
46661		9.306462	-1.453190	-0.478928	-1.120482	-0.978975	-0.025589	-1.474121	0.383057	0.303223
46662		9.529255	-1.854978	-1.112489	-1.009490	-0.952983	0.022739	-1.471924	0.380859	0.322754
46663		9.672970	-1.648827	-1.140709	-0.856337	-0.908593	0.054678	-1.465576	0.378418	0.342285
46664		9.718237	-1.458889	-1.025250	-0.752447	-0.864522	0.075151	-1.468018	0.382813	0.357178
46665		9.517775	-1.048343	-0.694679	-0.730198	-0.806371	0.071286	-1.463623	0.380615	0.372314
46666		9.199384	-0.641240	-0.489854	-0.778846	-0.762447	0.063774	-1.465820	0.376221	0.387695
46667		9.051072	-0.315020	-0.475975	-0.883126	-0.768721	0.035986	-1.459717	0.382813	0.406982
46668		9.073668	-0.197179	-0.449009	-0.991501	-0.776349	0.002196	-1.461670	0.367188	0.420166
46669		9.284849	-0.475633	-0.259044	-1.071522	-0.781238	-0.024722	-1.459473	0.364990	0.439697
46670		9.356070	-0.768206	0.079934	-1.126226	-0.771065	-0.050254	-1.450928	0.367188	0.446289
46671		9.252265	-1.101809	-0.103552	-1.272719	-0.794362	-0.087904	-1.446533	0.362793	0.470215
46672		9.435222	-1.305623	-1.378929	-1.469311	-0.842960	-0.141441	-1.446533	0.353760	0.487549
46673		9.674083	-1.318085	-2.456814	-1.486976	-0.815999	-0.185701	-1.446289	0.344971	0.502930
46674		9.628700	-1.049851	-2.680749	-1.369898	-0.794805	-0.209404	-1.441650	0.331543	0.518555
46675		9.646539	-0.745039	-2.396020	-1.323796	-0.809618	-0.215839	-1.435059	0.322754	0.533936
46676		9.964963	-0.799739	-1.801813	-1.291064	-0.785774	-0.215805	-1.437256	0.316162	0.555664
46677		10.227284	-0.968034	-1.456247	-1.233009	-0.721212	-0.202335	-1.428467	0.311523	0.572998
46678		10.670247	-1.070905	-1.273598	-1.163554	-0.609874	-0.198553	-1.432617	0.296143	0.584229
46679		10.940443	-1.192102	-1.158191	-1.035027	-0.484330	-0.198442	-1.432617	0.291504	0.590820
46680		10.835315	-1.206303	-1.038348	-0.953975	-0.376868	-0.204771	-1.432373	0.278320	0.599854
46681		10.610367	-1.117126	-0.846751	-0.982468	-0.279871	-0.219142	-1.434326	0.276123	0.604248
46682		10.641077	-0.995624	-0.489228	-1.111829	-0.191554	-0.243818	-1.432129	0.264893	0.615234
46683		10.920223	-0.941210	-0.051877	-1.231122	-0.127432	-0.256913	-1.427490	0.256104	0.617920
46684		11.281175	-1.459258	0.220476	-1.304071	-0.106212	-0.241159	-1.431641	0.242676	0.622559
46685		11.598485	-2.018475	0.410342	-1.294657	-0.061499	-0.215976	-1.433350	0.229492	0.622803
46686		11.478891	-2.716430	0.279856	-1.213780	0.011584	-0.192077	-1.437744	0.227295	0.633545
46687		11.853781	-3.708246	-0.107701	-1.168510	0.130513	-0.175273	-1.437500	0.216064	0.631836
46688		12.741228	-4.835537	-0.668369	-0.987806	0.285484	-0.136089	-1.434814	0.202881	0.629883
46689		12.679153	-4.555578	-0.083769	-0.586900	0.399449	-0.053307	-1.441406	0.202881	0.623535
46690		12.537475	-3.252485	0.550277	-0.249872	0.380532	-0.016926	-1.450195	0.202881	0.616943
46691		13.056218	-2.303563	0.960102	0.166773	0.503377	-0.065063	-1.445557	0.202881	0.604004
46692		13.332481	-1.484079	1.521372	0.660098	0.767144	-0.132058	-1.447754	0.202881	0.591064
46693		13.635432	-0.708875	2.054773	1.025282	1.124799	-0.163772	-1.462891	0.205078	0.573486
46694		13.382528	-0.050486	1.552049	0.875685	1.555216	-0.129165	-1.464844	0.209717	0.543213
46695		13.018908	0.552698	2.303240	0.612165	2.029559	-0.164429	-1.477783	0.209717	0.510742
46696		12.107169	1.171186	3.156678	0.400340	2.404434	-0.199691	-1.494873	0.207520	0.473877
46697		11.137055	1.227338	2.250279	0.017861	2.601540	-0.237979	-1.505127	0.198730	0.430908
46698		10.803297	0.799714	1.033540	-0.283875	2.679029	-0.222578	-1.513428	0.194336	0.385742
46699		11.451023	0.180842	-0.073875	-0.506838	2.735159	-0.110748	-1.526123	0.192139	0.346680
46700		12.375629	-0.672757	-1.440635	-0.706008	2.733949	0.031267	-1.534424	0.185547	0.303711
46701		12.681163	-1.667929	-2.349145	-0.624795	2.575562	0.216568	-1.536377	0.185791	0.264893
46702		12.809585	-1.880481	-2.873314	-0.418707	2.343090	0.398824	-1.542725	0.190186	0.230225
46703		13.040000	-1.775252	-2.778491	-0.114789	2.152819	0.544299	-1.542725	0.197021	0.199707
46704		12.554356	-1.522032	-2.166925	0.307991	2.086496	0.661535	-1.542725	0.212402	0.158447
46705		11.602250	-0.447279	-1.086089	0.690584	2.067727	0.726117	-1.546875	0.219238	0.123779
46706		11.094064	-0.038833	-0.736095	0.950667	2.068075	0.770800	-1.542725	0.232666	0.093262
46707		10.831872	0.452746	-0.609873	1.095675	2.100067	0.767460	-1.540283	0.234863	0.050049
46708		10.644876	1.068397	-0.397026	1.237508	2.060367	0.693674	-1.533447	0.241699	0.017578
46709		11.201801	1.356428	-0.195293	1.210529	1.996947	0.688395	-1.527100	0.257324	-0.015137
46710		11.541960	1.337612	-0.058013	1.109770	1.984780	0.645384	-1.520508	0.261719	-0.047607
46711		11.871522	0.675140	0.042595	0.956391	1.990402	0.632007	-1.518066	0.270752	-0.088867
46712		11.597740	0.233555	0.039931	0.827391	2.035115	0.646778	-1.513672	0.277588	-0.121338
46713		11.504303	-0.599261	-0.365093	0.761715	2.056590	0.615484	-1.500488	0.281982	-0.151611
46714		9.666843	-0.354958	-0.520125	0.886889	2.145126	0.584385	-1.495850	0.282227	-0.186035
46715		8.475669	-0.532323	-0.033104	0.986913	2.041985	0.465531	-1.491211	0.288818	-0.220703
46716		8.667838	-0.640055	-0.229976	1.143914	1.973116	0.411909	-1.479980	0.289063	-0.259277
46717		9.425207	-1.222194	-0.626263	1.296358	1.915139	0.434188	-1.473145	0.289063	-0.291748
46718		9.144879	-1.093626	-0.564138	1.458783	1.908758	0.415961	-1.457764	0.291504	-0.315186
46719		8.818568	-0.764032	-0.578966	1.512331	1.809940	0.363320	-1.444336	0.282715	-0.343018
46720		8.835326	-0.883929	-0.705475	1.607404	1.639694	0.358986	-1.441895	0.287109	-0.375488
46721		9.028139	-0.544148	-0.503904	1.716021	1.544362	0.353759	-1.430420	0.278320	-0.403076
46722		8.589184	0.397675	-0.079173	1.774166	1.495582	0.349252	-1.421387	0.271729	-0.426514
46723		7.971184	0.853237	0.490062	1.512175	1.389998	0.331259	-1.408203	0.271973	-0.445801
46724		7.526442	0.837459	0.673006	1.319105	1.245010	0.323056	-1.396973	0.274170	-0.469482
46725		7.221711	0.395658	0.773101	1.121659	1.082313	0.297102	-1.398926	0.265381	-0.484375
46726		7.109068	0.068937	0.365099	1.098838	0.998041	0.266810	-1.387939	0.263184	-0.494873
46727		6.570634	0.269151	0.782897	0.914282	0.954088	0.238987	-1.376709	0.263184	-0.514160
46728		6.210281	0.201064	1.084389	0.689931	0.784627	0.228228	-1.374512	0.265381	-0.520752
46729		6.050164	0.080183	1.137883	0.567795	0.593825	0.242738	-1.370117	0.265625	-0.531494
46730		6.002116	-0.047445	1.154390	0.545486	0.463463	0.264901	-1.365723	0.265625	-0.540039
46731		5.749176	-0.007901	1.252086	0.568765	0.373870	0.286642	-1.363525	0.263428	-0.542236
46732		5.531381	0.158383	1.455882	0.588319	0.266747	0.293018	-1.361328	0.270020	-0.548828
46733		5.433670	0.193024	1.132865	0.629894	0.120663	0.292615	-1.365723	0.270020	-0.548828
46734		5.614647	0.389548	0.716579	0.715579	-0.039979	0.277136	-1.363525	0.270020	-0.551025
46735		5.864073	0.325449	0.638011	0.731590	-0.172163	0.258656	-1.361328	0.272217	-0.544678
46736		6.047341	0.354850	1.109964	0.674161	-0.317589	0.234903	-1.363525	0.270020	-0.544434
46737		6.120699	0.434651	1.909889	0.511972	-0.485971	0.214586	-1.370361	0.276611	-0.536133
46738		6.318908	0.418903	2.668832	0.310525	-0.672056	0.205245	-1.370117	0.270020	-0.531738
46739		6.673885	0.204410	3.104667	0.145030	-0.833631	0.220475	-1.381348	0.276611	-0.521240
46740		6.788108	-0.052656	3.278611	0.100995	-0.934923	0.239595	-1.383789	0.283203	-0.508545
46741		7.172653	-0.385341	3.488407	0.153658	-1.028770	0.252819	-1.395020	0.289795	-0.491455
46742		7.578523	-0.572920	3.981378	0.268945	-1.087617	0.262626	-1.402100	0.298584	-0.480957
46743		8.090308	-0.795712	4.780677	0.279800	-1.100893	0.273927	-1.410889	0.296387	-0.465820
46744		8.400991	-1.143268	5.565263	0.238169	-1.059690	0.262002	-1.410889	0.300781	-0.455322
46745		8.762595	-1.356865	6.206546	0.375215	-0.954536	0.227711	-1.415527	0.302979	-0.446777
46746		9.265081	-0.871253	6.628367	0.612387	-0.826896	0.203275	-1.420166	0.309570	-0.434082
46747		9.961260	-0.935308	7.187383	0.720229	-0.669698	0.164197	-1.422363	0.313965	-0.432129
46748		10.004453	-0.527244	8.248843	0.664806	-0.530767	0.089791	-1.426758	0.309326	-0.423340
46749		11.351455	0.425630	9.498153	0.333174	-0.557872	-0.030654	-1.428955	0.309326	-0.421143
46750		12.857677	0.449348	9.875954	0.238521	-0.505834	-0.112825	-1.428955	0.302734	-0.412354
46751		13.456379	0.757965	9.663134	0.471450	-0.373078	-0.099628	-1.435547	0.307129	-0.408203
46752		12.883523	1.383792	8.485206	0.415330	-0.182709	-0.027461	-1.435547	0.304932	-0.406006
46753		11.843112	1.229406	6.531944	0.060674	-0.071371	0.057311	-1.433105	0.300537	-0.410156
46754		11.007757	0.903844	4.835447	0.010364	0.107416	0.137842	-1.437744	0.309326	-0.416992
46755		9.293105	0.532858	3.777303	0.409202	0.388768	0.215977	-1.428955	0.309326	-0.421143
46756		7.094943	0.513717	2.384197	0.933263	0.434987	0.261574	-1.428711	0.304932	-0.431885
46757		6.492400	0.704840	0.991832	1.198716	0.168611	0.246984	-1.433105	0.304932	-0.438477
46758		8.213509	0.925380	0.175240	1.286614	-0.280652	0.241678	-1.435303	0.307129	-0.438477
46759		10.448775	1.778998	1.420147	1.152352	-0.509721	0.237336	-1.437500	0.302734	-0.434082
46760		12.209350	1.489535	4.415226	1.071380	-0.594428	0.231600	-1.437256	0.293945	-0.429443
46761		14.209888	0.946719	6.221535	1.088412	-0.707255	0.231728	-1.441895	0.298340	-0.425293
46762		15.645905	0.593829	4.861946	0.773484	-0.741816	0.189620	-1.441895	0.300537	-0.414551
46763		16.338544	0.433370	3.655735	0.451933	-0.563946	0.035826	-1.446045	0.293945	-0.416504
46764		14.348108	1.803459	4.789328	0.478217	-0.092673	-0.095669	-1.448242	0.289307	-0.416504
46765		11.130923	2.546990	6.471163	0.373958	0.204178	-0.102672	-1.445801	0.287109	-0.420654
46766		8.682973	2.090722	4.270039	-0.039702	-0.030787	-0.065106	-1.445801	0.282715	-0.414063
46767		8.326331	0.159787	-0.365045	-0.511753	-0.394356	0.025939	-1.443604	0.280518	-0.409668
46768		7.291270	-1.445805	-2.295727	-0.566819	-0.487408	0.233415	-1.450439	0.291504	-0.399414
46769		5.574773	-2.458177	-2.645665	-0.561629	-0.706934	0.427405	-1.450684	0.293701	-0.384277
46770		4.704041	-2.965043	-2.622165	-0.432852	-1.088596	0.535970	-1.453369	0.304932	-0.373779
46771		5.343203	-3.563807	-2.031622	-0.275374	-1.581671	0.546839	-1.462646	0.315918	-0.346191
46772		7.234299	-4.246518	-0.983643	-0.287615	-1.808122	0.479315	-1.467529	0.326904	-0.316406
46773		9.225297	-4.535564	0.299877	-0.366041	-1.648838	0.392776	-1.463379	0.326660	-0.290527
46774		10.581069	-3.763623	1.032524	-0.388496	-1.288949	0.316868	-1.474609	0.331055	-0.273438
46775		11.482661	-2.625783	0.940977	-0.311092	-0.953075	0.255383	-1.476807	0.333252	-0.262695
46776		11.644199	-0.576764	1.089730	-0.117079	-0.779629	0.221780	-1.477295	0.344482	-0.250000
46777		11.274666	0.106538	0.809133	-0.027997	-0.808445	0.159186	-1.479492	0.344238	-0.239258
46778		10.655437	0.865276	0.418838	0.101416	-0.832707	0.085975	-1.479736	0.344238	-0.222168
46779		9.515167	1.763845	0.528880	-0.038037	-0.959488	0.035195	-1.486328	0.348633	-0.211426
46780		8.870480	2.023053	0.543465	-0.360801	-1.140005	0.006457	-1.484375	0.346436	-0.191895
46781		8.421193	1.877689	0.542622	-0.711500	-1.282929	0.055743	-1.493408	0.348633	-0.164063
46782		8.256600	1.041221	0.452940	-1.042200	-1.480869	0.134779	-1.491455	0.350830	-0.135986
46783		8.740041	-0.092944	0.205884	-1.173070	-1.631836	0.175916	-1.491943	0.357178	-0.104004
46784		9.183764	-1.428174	0.045627	-1.199075	-1.670817	0.182211	-1.496582	0.363770	-0.082520
46785		9.500356	-2.111218	-0.240046	-1.156863	-1.606822	0.118709	-1.494873	0.368164	-0.050293
46786		9.399712	-2.384778	-0.517309	-1.113206	-1.478988	0.104668	-1.501709	0.372559	-0.029053
46787		9.076581	-2.888064	-0.966072	-1.075257	-1.395816	0.089016	-1.508301	0.370361	-0.003174
46788		8.673362	-3.421712	-1.380668	-1.016744	-1.375104	0.003925	-1.502197	0.374756	0.029297
46789		9.349410	-3.085275	-1.761769	-0.855523	-1.396003	-0.075212	-1.497803	0.372559	0.046631
46790		10.045090	-3.148940	-1.840244	-0.829295	-1.418723	-0.111182	-1.504395	0.365723	0.070313
46791		10.048424	-1.004558	-1.379868	-0.562773	-1.237966	-0.061335	-1.498291	0.367920	0.092041
46792		9.393035	-0.722926	-0.274412	-0.546491	-1.236065	-0.055891	-1.507080	0.370117	0.113525
46793		9.755357	0.013725	-0.005850	-0.431509	-1.256933	-0.000944	-1.500732	0.372314	0.137207
46794		9.469096	0.099064	0.542448	-0.573147	-1.264579	0.026580	-1.498779	0.369873	0.160889
46795		9.287104	-0.025569	0.294916	-0.721545	-1.289058	0.043751	-1.496826	0.372070	0.182373
46796		9.041765	-0.266638	-0.150713	-0.799913	-1.309466	0.023079	-1.497070	0.372070	0.204102
46797		9.226051	-0.669739	-0.583982	-0.844864	-1.350591	0.023200	-1.499268	0.367676	0.225830
46798		9.585670	-1.200562	-1.117936	-0.844454	-1.291776	0.042325	-1.486572	0.372070	0.251709
46799		9.449935	-1.631094	-0.730405	-0.900289	-1.185161	0.031933	-1.489014	0.371826	0.277588
46800		9.714419	-1.765402	-0.596439	-0.830325	-1.127755	0.045402	-1.491211	0.367432	0.299072
46801		9.626110	-1.875814	-0.447867	-0.771465	-1.060560	0.043139	-1.484863	0.371826	0.314209
46802		9.861618	-1.854524	-0.209775	-0.757352	-1.036024	0.029660	-1.482666	0.367432	0.333740
46803		10.082161	-1.851602	-0.075153	-0.704504	-0.984577	0.021054	-1.480469	0.367432	0.344482
46804		10.105495	-1.847871	0.007110	-0.614825	-0.921506	0.014089	-1.482910	0.365234	0.364014
46805		9.990948	-1.674081	-0.023545	-0.553925	-0.899811	0.019797	-1.474365	0.367432	0.383545
46806		10.072587	-1.268327	-0.152043	-0.583905	-0.879712	0.015383	-1.479004	0.369385	0.406982
46807		10.061967	-0.999876	-0.175838	-0.644420	-0.801140	0.010353	-1.470215	0.362793	0.416016
46808		9.821004	-0.688250	-0.065885	-0.670565	-0.729646	0.003539	-1.465820	0.360596	0.422607
46809		9.579852	-0.561627	-0.433284	-0.733803	-0.660406	0.001973	-1.465820	0.356201	0.446289
46810		9.286573	-0.673745	-0.864394	-0.764563	-0.622295	-0.006265	-1.461670	0.360596	0.454834
46811		8.928247	-0.931839	-1.179617	-0.698741	-0.622490	-0.010034	-1.461670	0.360596	0.465820
46812		8.905883	-1.269413	-1.595556	-0.667436	-0.681643	-0.024443	-1.457275	0.355957	0.478760
46813		9.046974	-1.399218	-1.773915	-0.668784	-0.705710	-0.041488	-1.455078	0.351563	0.494141
46814		9.048685	-1.202498	-2.163809	-0.726850	-0.727019	-0.070829	-1.452881	0.347168	0.507080
46815		9.186776	-0.945739	-2.512396	-0.823453	-0.756456	-0.103970	-1.452881	0.338135	0.524658
46816		9.287732	-0.498618	-2.391869	-0.868227	-0.759599	-0.133964	-1.444336	0.338135	0.533447
46817		9.245756	-0.141785	-2.134361	-0.857359	-0.782386	-0.148715	-1.444092	0.331543	0.550781
46818		9.524462	-0.208229	-1.976196	-0.799039	-0.789280	-0.156449	-1.437744	0.324951	0.568359
46819		9.759429	-0.442421	-1.944504	-0.792106	-0.785025	-0.160642	-1.435547	0.327148	0.581299
46820		10.012802	-0.849717	-1.926674	-0.794871	-0.771020	-0.170303	-1.428955	0.315918	0.601074
46821		10.222389	-0.977671	-1.709895	-0.877774	-0.726887	-0.179730	-1.428711	0.307129	0.614258
46822		10.184863	-1.188217	-1.676937	-0.968363	-0.675080	-0.213080	-1.428711	0.302490	0.631592
46823		10.309586	-1.307276	-1.606134	-0.998665	-0.618855	-0.239899	-1.424072	0.289307	0.638428
46824		10.523486	-1.366647	-1.541434	-1.064146	-0.547633	-0.269881	-1.426270	0.282715	0.645020
46825		10.878968	-1.327524	-1.380991	-1.127042	-0.471564	-0.296254	-1.426025	0.271484	0.656250
46826		11.014446	-1.330191	-1.047334	-1.146670	-0.398472	-0.293782	-1.419434	0.260498	0.673828
46827		10.839186	-1.540357	-1.016314	-1.158317	-0.367657	-0.284360	-1.418945	0.244873	0.682861
46828		10.915701	-1.916122	-1.394432	-1.147284	-0.347547	-0.277924	-1.416748	0.240479	0.685303
46829		10.946078	-2.091342	-1.711237	-1.072578	-0.298728	-0.263965	-1.412109	0.231689	0.694092
46830		10.743955	-1.955029	-1.542805	-1.016300	-0.261572	-0.266658	-1.411865	0.216064	0.694580
46831		10.683937	-1.874871	-1.379345	-0.971596	-0.236090	-0.274852	-1.409424	0.209473	0.703369
46832		10.826471	-1.900325	-1.063586	-0.885706	-0.187013	-0.286069	-1.415771	0.198242	0.712158
46833		11.486035	-2.237361	-1.052621	-0.826214	-0.086934	-0.286673	-1.411377	0.191650	0.714600
46834		12.164436	-2.650389	-0.659003	-0.664646	0.021845	-0.245450	-1.417725	0.189453	0.714600
46835		12.116083	-2.776222	0.220444	-0.395239	0.062299	-0.174216	-1.410889	0.176025	0.721680
46836		12.161606	-2.558912	0.443794	-0.294388	0.092283	-0.120021	-1.406494	0.176270	0.710938
46837		12.628402	-2.410101	-0.053251	-0.216848	0.318069	-0.094053	-1.413086	0.178467	0.699951
46838		12.721217	-2.137192	-0.073306	-0.063664	0.594567	-0.064459	-1.415039	0.174072	0.693604
46839		12.716806	-1.717040	0.710871	0.059746	0.799328	-0.057999	-1.419189	0.171631	0.682861
46840		12.916591	-1.067414	1.869530	0.320183	1.029348	-0.069113	-1.427979	0.174072	0.667480
46841		13.125878	-0.210768	3.006802	0.751893	1.369413	-0.101960	-1.438721	0.180664	0.639160
46842		12.398071	0.554384	2.957480	0.776572	1.813944	-0.074303	-1.447021	0.176270	0.609131
46843		11.860829	0.890703	1.246588	0.247163	2.239088	-0.050625	-1.459961	0.176270	0.574463
46844		10.953724	1.320291	2.524523	0.148554	2.715222	-0.056780	-1.481689	0.180908	0.531006
46845		10.474710	1.889676	2.652563	-0.028864	2.858239	-0.032241	-1.489746	0.174316	0.485596
46846		10.635828	1.211325	1.118751	-0.378319	2.899423	0.022181	-1.500244	0.172119	0.442627
46847		11.353309	0.711018	-0.034469	-0.484788	2.895909	0.168543	-1.517334	0.172119	0.396973
46848		11.890916	0.249036	-0.772486	-0.679675	2.793387	0.304129	-1.523682	0.174316	0.360352
46849		12.447906	-0.502324	-1.618515	-0.729771	2.693234	0.418706	-1.531982	0.172363	0.317139
46850		12.385015	-0.780345	-2.068607	-0.685759	2.548815	0.554810	-1.536133	0.174561	0.278076
46851		12.649354	-1.348156	-2.487275	-0.426414	2.379890	0.699448	-1.540527	0.190186	0.238770
46852		12.404195	-1.239476	-2.321640	0.053516	2.321961	0.837405	-1.544922	0.201416	0.195313
46853		12.061493	-0.630143	-1.909604	0.614641	2.325292	0.872120	-1.540527	0.212402	0.164795
46854		12.092313	-0.057632	-1.845389	1.087710	2.276872	0.899235	-1.540527	0.228027	0.123535
46855		12.288780	0.417859	-1.400667	1.593158	2.267723	0.915089	-1.538330	0.239258	0.084473
46856		12.715413	0.931883	-0.815412	1.909599	2.238667	0.890767	-1.536377	0.254883	0.047363
46857		12.719437	1.451880	-0.690359	1.985819	2.274426	0.880284	-1.531982	0.268311	-0.000488
46858		12.463603	1.623485	0.043725	1.893057	2.311147	0.849811	-1.522949	0.275146	-0.039307
46859		11.546854	1.370160	-0.128492	1.635343	2.427111	0.841727	-1.518311	0.277344	-0.080322
46860		11.193380	1.381899	0.170671	1.299445	2.340565	0.803646	-1.509521	0.286377	-0.125977
46861		11.041487	0.462873	-0.360870	1.014662	2.387438	0.749088	-1.505127	0.297607	-0.165039
46862		10.146414	0.144760	-0.061130	0.694602	2.487505	0.609762	-1.491943	0.304443	-0.201660
46863		9.533524	-0.625278	-0.437585	0.570310	2.421104	0.547404	-1.478516	0.304443	-0.240479
46864		8.883582	-0.784023	-0.283528	0.605496	2.362821	0.394554	-1.467041	0.302246	-0.276855
46865		8.999049	-0.500802	-0.014924	0.566517	2.232638	0.249244	-1.460205	0.298096	-0.306885
46866		9.619786	-1.491899	-1.343802	0.919208	2.085281	0.241776	-1.451172	0.298096	-0.341309
46867		9.023298	-1.059131	-1.370045	1.360421	2.098127	0.167220	-1.437744	0.293701	-0.375488
46868		8.231476	-0.702409	-1.188088	1.548054	2.045551	0.073521	-1.428467	0.284912	-0.405518
46869		7.677484	-0.643807	-0.920272	1.589345	1.894953	0.048668	-1.421387	0.276367	-0.439697
46870		7.094008	-0.191490	-0.989465	1.726103	1.727715	0.065482	-1.414551	0.271973	-0.463135
46871		6.646967	0.399110	-0.867209	1.736055	1.536807	0.077672	-1.396729	0.263184	-0.488525
46872		6.179298	0.751864	-0.967910	1.651440	1.390096	0.078633	-1.387451	0.254395	-0.516357
46873		5.714019	1.064576	-0.803237	1.538751	1.242917	0.075651	-1.382568	0.245605	-0.533203
46874		5.661322	0.724025	-0.350380	1.290640	1.052872	0.119599	-1.378174	0.245605	-0.546143
46875		5.373386	0.367369	0.220436	1.051334	0.875055	0.177058	-1.366943	0.241211	-0.563232
46876		5.198972	-0.098166	0.937122	0.758756	0.675914	0.238696	-1.364746	0.239014	-0.562988
46877		5.159874	-0.472851	1.481401	0.493570	0.475181	0.306665	-1.366943	0.241211	-0.571777
46878		5.091337	-0.781432	1.703951	0.336393	0.276476	0.390588	-1.358398	0.248047	-0.578369
46879		4.766520	-0.970586	1.550481	0.315126	0.119671	0.475688	-1.356445	0.254639	-0.576416
46880		4.289319	-1.001933	1.572706	0.348265	-0.050724	0.544140	-1.362793	0.256836	-0.580811
46881		3.991086	-1.113846	1.823641	0.360518	-0.300205	0.573700	-1.358887	0.267822	-0.570313
46882		3.726106	-1.267543	2.139581	0.343866	-0.614593	0.575928	-1.372314	0.276611	-0.564209
46883		3.513467	-1.152473	2.336911	0.325086	-0.970598	0.555836	-1.366211	0.285400	-0.549316
46884		3.465536	-0.839749	2.376198	0.300984	-1.319731	0.516108	-1.381592	0.287598	-0.534424
46885		4.264153	-0.568055	2.478653	0.289432	-1.608904	0.436499	-1.386230	0.294189	-0.513184
46886		6.049478	-0.365487	2.827897	0.306966	-1.829968	0.351090	-1.397705	0.302979	-0.485352
46887		7.984130	-0.468682	3.711565	0.307116	-1.928017	0.253294	-1.411133	0.305176	-0.464111
46888		9.477175	-0.599050	5.102761	0.412761	-1.873834	0.158393	-1.415771	0.313965	-0.438477
46889		10.974513	-0.881600	7.472416	0.643889	-1.645739	0.085046	-1.424805	0.311768	-0.421143
46890		12.017067	-0.954595	10.255749	0.994980	-1.293879	0.011640	-1.433350	0.309326	-0.408203
46891		13.257656	0.362412	12.556837	0.900568	-1.007055	-0.124711	-1.435547	0.304932	-0.401611
46892		15.054027	2.932926	13.545990	0.616205	-0.648487	-0.278669	-1.442139	0.300537	-0.397461
46893		16.344730	4.806515	13.497269	0.360593	-0.687337	-0.267642	-1.442139	0.300537	-0.388672
46894		17.552321	5.532378	11.919519	-0.476701	-0.567852	-0.045579	-1.444336	0.302734	-0.380127
46895		16.828447	3.469923	7.697167	-0.746891	0.088643	0.203561	-1.446533	0.302734	-0.382324
46896		13.765999	1.481085	4.878836	-0.100355	0.715082	0.384332	-1.435791	0.313721	-0.397705
46897		9.619580	0.669983	3.506447	0.633329	0.899866	0.480269	-1.437988	0.313721	-0.419189
46898		5.563269	0.101438	1.719001	1.366596	0.807647	0.463751	-1.428955	0.311768	-0.434082
46899		3.549255	-0.216275	0.735662	2.032123	0.476090	0.383696	-1.426514	0.309570	-0.444824
46900		4.584338	0.245998	1.092719	2.371694	-0.090897	0.293940	-1.426270	0.300537	-0.448975
46901		7.396795	1.279011	2.159472	1.956174	-0.573212	0.216475	-1.428467	0.293945	-0.448730
46902		10.228386	1.429643	2.134804	0.873699	-0.741732	0.176710	-1.435059	0.291748	-0.433594
46903		12.385745	1.201382	1.722712	0.005647	-0.727863	0.148956	-1.441650	0.291748	-0.427246
46904		13.754449	1.236892	1.261353	-0.434138	-1.009913	0.080187	-1.444092	0.298340	-0.412354
46905		16.314831	1.486509	1.759365	-0.603503	-1.398375	-0.176932	-1.450684	0.298340	-0.390869
46906		16.743398	1.968065	3.902418	-0.116896	-0.924529	-0.393516	-1.450439	0.282715	-0.381836
46907		13.924144	3.089604	6.275843	0.292199	-0.250557	-0.261088	-1.457031	0.284912	-0.386230
46908		11.046565	2.958241	5.887407	0.288269	0.292084	-0.009249	-1.454346	0.271729	-0.392334
46909		7.809214	1.513137	0.795576	-0.417115	0.032620	0.177052	-1.454590	0.278320	-0.385986
46910		6.354729	-0.907283	-4.163838	-1.203273	-0.389047	0.345276	-1.455322	0.298096	-0.377930
46911		4.887076	-2.833133	-5.921475	-1.448148	-0.712594	0.541557	-1.462158	0.300293	-0.356445
46912		4.036062	-3.374887	-6.493470	-1.213506	-1.284726	0.683723	-1.464844	0.318115	-0.337646
46913		5.136767	-3.264957	-4.922030	-0.950598	-2.003344	0.638307	-1.467529	0.324463	-0.294678
46914		7.758656	-3.316256	-2.331205	-1.141236	-2.233497	0.380079	-1.476807	0.333252	-0.260498
46915		10.237388	-3.103067	-0.551846	-1.441679	-2.018973	0.077751	-1.485840	0.335449	-0.228271
46916		12.518680	-3.199623	0.172048	-1.443417	-1.716135	-0.142322	-1.488281	0.339844	-0.207031
46917		13.817002	-3.581906	0.381935	-1.132648	-1.316035	-0.236854	-1.492920	0.339844	-0.181152
46918		13.253335	-3.721002	0.158238	-0.747295	-1.007901	-0.238378	-1.497314	0.333008	-0.157227
46919		11.622099	-3.239733	-0.257914	-0.384888	-0.884165	-0.203074	-1.497314	0.330811	-0.150635
46920		9.911789	-2.626264	-0.512289	-0.062116	-0.967390	-0.092862	-1.504150	0.330811	-0.135742
46921		8.862057	-1.745573	0.019955	0.129330	-1.139508	-0.015773	-1.500000	0.335205	-0.120605
46922		8.079510	-1.445830	0.132072	0.136532	-1.317949	0.090262	-1.497803	0.333008	-0.096924
46923		7.296642	-0.790985	0.647994	0.083826	-1.505298	0.154424	-1.511475	0.339355	-0.071289
46924		7.725365	-0.645119	0.534765	-0.164333	-1.719091	0.228916	-1.511719	0.341553	-0.045410
46925		7.722977	0.582060	0.519956	-0.544546	-1.788629	0.239742	-1.507568	0.345947	-0.015381
46926		8.497441	0.029285	0.283217	-1.100017	-1.834423	0.110545	-1.508057	0.350342	0.019043
46927		9.640010	-0.822291	-0.431943	-1.408887	-1.788616	0.022232	-1.510498	0.350342	0.047119
46928		9.547830	-0.497424	-0.390315	-1.401550	-1.602070	-0.071021	-1.512939	0.352295	0.081543
46929		9.369190	-1.182396	-0.819030	-1.391863	-1.432310	-0.128891	-1.508545	0.343506	0.101318
46930		8.810111	-2.110095	-1.194026	-1.109124	-1.209850	-0.152041	-1.512939	0.341309	0.127197
46931		8.590075	-1.206782	-0.476768	-1.071563	-1.124090	-0.159223	-1.511230	0.343262	0.150879
46932		8.365611	-1.617750	-0.622207	-1.071789	-1.215649	-0.163076	-1.504395	0.332275	0.174805
46933		9.578354	-1.860917	-1.221969	-1.073681	-1.415621	-0.140547	-1.507080	0.338867	0.200684
46934		10.464518	-1.503900	-1.084534	-0.824808	-1.419183	-0.063807	-1.504883	0.334229	0.226563
46935		10.976796	-1.409826	-0.795139	-0.485196	-1.304248	0.006221	-1.500732	0.338867	0.241699
46936		10.763543	-0.732945	-0.291008	-0.032563	-1.078253	0.062957	-1.496826	0.343262	0.263184
46937		10.127702	-0.364269	0.377465	0.074733	-0.896701	0.058980	-1.496826	0.340820	0.271729
46938		9.830797	-0.863502	0.694135	0.002698	-0.869345	0.053663	-1.497070	0.343018	0.289063
46939		9.866954	-1.199936	1.345447	-0.160971	-0.941858	0.059927	-1.497070	0.347412	0.301758
46940		9.818080	-1.422799	1.779864	-0.377486	-1.034337	0.040211	-1.488525	0.347412	0.323486
46941		9.825515	-1.386504	1.614661	-0.620439	-1.045692	-0.013084	-1.488525	0.340820	0.338623
46942		9.880505	-1.547067	1.015067	-0.814863	-0.970700	-0.044666	-1.484375	0.338623	0.356201
46943		9.888899	-1.655343	0.397645	-0.873416	-0.887586	-0.044359	-1.482178	0.333984	0.369141
46944		9.847513	-1.701050	-0.355570	-0.771862	-0.830267	-0.027084	-1.473633	0.338379	0.386475
46945		9.860674	-1.377891	-0.961478	-0.622600	-0.755344	-0.017057	-1.478027	0.331787	0.399414
46946		9.791092	-1.047218	-1.503267	-0.561058	-0.706722	-0.019517	-1.475830	0.333984	0.414551
46947		9.679648	-0.749499	-1.825037	-0.530859	-0.641591	-0.013613	-1.471436	0.331787	0.414551
46948		9.359076	-0.299010	-1.947168	-0.540727	-0.616392	-0.018591	-1.469482	0.333984	0.434082
46949		9.221022	0.041036	-1.907680	-0.591481	-0.635416	-0.032701	-1.471680	0.329590	0.444824
46950		9.172109	0.263892	-1.624782	-0.668890	-0.680854	-0.038105	-1.463135	0.327148	0.468750
46951		9.059843	0.272928	-1.182258	-0.805463	-0.740880	-0.044167	-1.460938	0.322754	0.477539
46952		9.067061	0.239036	-1.164154	-0.968025	-0.805603	-0.077305	-1.456543	0.316162	0.492920
46953		9.122880	0.139753	-1.481725	-1.031858	-0.804466	-0.123462	-1.456543	0.309326	0.514648
46954		9.218737	0.016807	-2.031092	-0.992301	-0.806546	-0.179360	-1.454102	0.300537	0.525635
46955		9.359090	-0.277356	-2.143176	-0.921806	-0.796199	-0.236348	-1.451904	0.298340	0.536621
46956		9.652586	-0.580932	-1.963264	-0.878072	-0.777566	-0.272143	-1.449707	0.287109	0.556396
46957		9.943605	-0.913425	-1.669859	-0.887773	-0.735857	-0.276080	-1.447266	0.278320	0.567383
46958		10.062917	-1.242681	-1.381786	-0.895761	-0.685593	-0.266524	-1.442871	0.271729	0.584961
46959		10.175710	-1.332895	-1.080462	-0.902479	-0.646048	-0.246109	-1.440430	0.260498	0.589600
46960		10.186938	-1.439782	-1.133803	-0.892248	-0.621936	-0.242743	-1.438232	0.258301	0.602539
46961		10.344966	-1.565709	-1.309090	-0.890032	-0.567535	-0.251868	-1.433838	0.247314	0.611572
46962		10.632521	-1.599709	-1.473816	-0.915517	-0.504787	-0.266943	-1.433594	0.240479	0.624756
46963		10.822432	-1.379049	-1.405856	-0.886348	-0.437762	-0.275038	-1.433594	0.231689	0.633545
46964		11.097183	-0.879382	-0.732804	-0.831583	-0.390718	-0.262847	-1.427002	0.229492	0.644531
46965		11.590609	-0.823394	0.084801	-0.835051	-0.307394	-0.246303	-1.426758	0.216064	0.649170
46966		11.876443	-0.665317	1.167800	-0.930188	-0.170271	-0.204814	-1.428711	0.209473	0.651367
46967		11.675253	-1.088112	1.648416	-1.107378	-0.027197	-0.177588	-1.428467	0.198486	0.658203
46968		12.388248	-2.392491	1.017513	-1.317613	0.174282	-0.172281	-1.432617	0.191650	0.658447
46969		13.340009	-3.724661	0.289361	-1.257525	0.411185	-0.140487	-1.438965	0.180664	0.649902
46970		13.368055	-3.755090	0.460031	-0.925407	0.530338	-0.080792	-1.438477	0.169678	0.643799
46971		13.525286	-3.397828	0.615929	-0.579309	0.544647	-0.057867	-1.444824	0.167480	0.633057
46972		13.813945	-2.994255	0.354895	-0.132078	0.741565	-0.086468	-1.448975	0.162842	0.615967
46973		13.715455	-2.582123	0.031001	0.275318	1.010706	-0.126274	-1.457764	0.165283	0.604980
46974		13.510146	-1.971530	0.694525	0.772331	1.267044	-0.169394	-1.461914	0.167480	0.581055
46975		13.235071	-0.662716	2.175311	1.490263	1.591990	-0.197502	-1.470459	0.171875	0.550781
46976		12.075028	1.236423	2.033998	1.513146	1.954541	-0.137483	-1.483643	0.178711	0.520264
46977		11.866269	1.600499	1.287493	0.847999	2.430180	-0.209886	-1.491943	0.178711	0.468262
46978		10.715855	2.303585	1.754960	0.465670	2.882727	-0.237158	-1.506592	0.169922	0.431641
46979		9.831574	2.466000	0.579459	-0.172701	2.937034	-0.208834	-1.519531	0.169922	0.388428
46980		10.279730	1.083837	-0.852480	-0.511723	2.974409	-0.138504	-1.525391	0.163330	0.341064
46981		10.585740	0.949360	-1.349119	-0.541984	2.885896	0.036406	-1.535889	0.156738	0.298096
46982		11.270417	0.205275	-2.196368	-0.703671	2.652359	0.249940	-1.540039	0.163574	0.256836
46983		11.758574	-0.589220	-2.918766	-0.751810	2.436753	0.456962	-1.544189	0.163574	0.222412
46984		11.836657	-1.128170	-3.427745	-0.633852	2.231925	0.607806	-1.548340	0.168213	0.189697
46985		12.114374	-0.673602	-2.594813	-0.248696	2.140827	0.736904	-1.548340	0.181396	0.150635
46986		12.150487	-0.951288	-2.172371	0.202495	2.110216	0.829004	-1.544189	0.199219	0.119873
46987		11.571431	-0.112489	-1.717782	0.642791	2.104316	0.913557	-1.541748	0.203857	0.087402
46988		11.588485	0.042079	-1.799813	0.917528	2.021986	0.900978	-1.537598	0.219482	0.046143
46989		11.944267	0.042831	-1.701819	1.230872	1.988367	0.849672	-1.537598	0.228271	0.011230
46990		12.398993	0.696637	-1.129665	1.443271	1.987267	0.805903	-1.533203	0.237305	-0.023438
46991		12.000488	0.675311	-0.643578	1.497303	2.070365	0.803036	-1.520020	0.248535	-0.053711
46992		12.680967	0.288702	-0.179532	1.378452	2.004685	0.769177	-1.520020	0.259766	-0.092773
46993		11.047349	0.353017	-0.620729	1.401256	2.205922	0.771127	-1.508789	0.264160	-0.127441
46994		10.236119	0.517925	-0.035810	1.311377	2.092031	0.686823	-1.502441	0.275391	-0.162109
46995		10.127925	-0.269038	-0.085654	1.170722	2.045416	0.658947	-1.497559	0.273193	-0.200928
46996		9.502931	-0.812399	-0.035444	1.139517	2.037045	0.597186	-1.482178	0.275635	-0.226563
46997		9.145059	-1.075252	-0.276683	1.219003	1.965266	0.514543	-1.479980	0.284668	-0.267822
46998		8.947422	-0.734268	-0.370255	1.413518	1.896697	0.448741	-1.462158	0.280273	-0.293457
46999		9.138440	-0.641047	-0.431047	1.434147	1.810397	0.392634	-1.457520	0.282471	-0.319336
47000		9.064602	-0.902069	-1.045813	1.646945	1.749499	0.334060	-1.448242	0.273682	-0.349121
47001		8.676935	-0.126174	-0.724793	1.635424	1.717338	0.245489	-1.434814	0.271729	-0.376953
47002		7.983618	0.242249	-0.661929	1.564254	1.659968	0.185801	-1.427979	0.267334	-0.411377
47003		7.599834	0.605424	-0.300771	1.551250	1.560733	0.120935	-1.418945	0.262939	-0.430664
47004		7.460749	0.552087	-0.178187	1.602324	1.393822	0.096119	-1.405273	0.249756	-0.451660
47005		7.143141	1.201614	0.038317	1.600906	1.282495	0.058425	-1.396240	0.247559	-0.470947
47006		6.628936	1.656171	0.414179	1.384421	1.148612	0.047835	-1.396240	0.245361	-0.492432
47007		6.337612	1.668306	0.691630	1.035721	0.993558	0.065550	-1.387207	0.240967	-0.507324
47008		6.152173	1.442919	0.821320	0.693701	0.841655	0.092391	-1.382568	0.236572	-0.515869
47009		5.979345	0.918880	1.050027	0.400400	0.691671	0.137125	-1.378174	0.239014	-0.528809
47010		5.893673	0.541842	1.478068	0.171043	0.548050	0.186724	-1.371582	0.239014	-0.532959
47011		5.836926	0.148865	1.902174	0.002652	0.391341	0.242184	-1.367188	0.241211	-0.535156
47012		5.748083	-0.049548	1.726207	-0.015224	0.239239	0.292125	-1.371826	0.247803	-0.537598
47013		5.613451	0.044471	1.452448	0.033059	0.115972	0.311804	-1.369629	0.250000	-0.535400
47014		5.327645	0.054521	1.272326	0.130654	0.011123	0.302633	-1.367676	0.261230	-0.542236
47015		5.207381	-0.005674	1.534690	0.176070	-0.141629	0.264404	-1.369873	0.260986	-0.533447
47016		5.237985	0.061975	2.059024	0.105793	-0.318299	0.219127	-1.374512	0.265625	-0.531494
47017		5.382582	0.028112	2.603454	-0.068301	-0.515653	0.175359	-1.383545	0.269775	-0.518799
47018		5.758673	0.001075	2.818127	-0.217822	-0.719283	0.152121	-1.381348	0.274414	-0.512451
47019		6.263015	-0.083714	2.897013	-0.262336	-0.887963	0.147394	-1.385986	0.276367	-0.499756
47020		6.994150	-0.281171	3.144702	-0.225908	-1.007942	0.165910	-1.392822	0.285400	-0.487061
47021		7.893025	-0.670795	3.759334	-0.157405	-1.054217	0.193955	-1.404053	0.294189	-0.470215
47022		8.611763	-1.150870	4.538481	-0.027815	-1.046659	0.235885	-1.406494	0.300781	-0.457275
47023		9.204520	-1.310529	5.426746	0.113071	-0.998062	0.275934	-1.413330	0.300537	-0.442383
47024		9.936839	-1.599620	6.476124	0.263155	-0.883315	0.313694	-1.413330	0.302734	-0.431641
47025		10.267097	-1.831882	7.469288	0.567060	-0.681986	0.351480	-1.415771	0.311768	-0.434082
47026		9.962443	-1.672476	8.389323	0.805349	-0.488037	0.350424	-1.420410	0.311768	-0.423340
47027		10.141583	-1.562256	8.753940	0.860398	-0.364474	0.256954	-1.422607	0.316162	-0.425537
47028		10.370723	-0.473106	9.205941	0.727564	-0.204631	0.135442	-1.427002	0.313965	-0.421387
47029		10.521705	1.323918	9.859510	0.348229	-0.024431	0.017402	-1.427002	0.313965	-0.425537
47030		10.979560	0.939964	9.760286	-0.056076	-0.043029	-0.047376	-1.427002	0.318359	-0.416992
47031		11.572366	0.605278	9.234181	-0.096089	-0.070567	-0.052983	-1.427002	0.313965	-0.423340
47032		11.434609	0.035516	8.043695	-0.033393	-0.051281	-0.002480	-1.422607	0.316162	-0.425537
47033		10.554707	-0.002802	7.042250	0.085567	-0.026547	0.084413	-1.429443	0.322754	-0.421631
47034		9.246916	-0.001171	6.424549	0.298528	0.039427	0.180229	-1.424805	0.320557	-0.432129
47035		8.002949	0.333279	5.585237	0.662230	0.026650	0.263023	-1.420410	0.318359	-0.436523
47036		7.129424	0.680590	3.926004	1.017213	-0.080759	0.296204	-1.420410	0.320557	-0.440918
47037		7.175045	1.172530	2.116616	1.291391	-0.165562	0.296299	-1.422607	0.324951	-0.436768
47038		8.594555	1.483986	0.977909	1.438552	-0.287889	0.281524	-1.420166	0.313965	-0.438477
47039		10.259021	2.305184	0.763059	1.374106	-0.516572	0.300683	-1.424316	0.307373	-0.440430
47040		11.864982	2.079366	1.798515	1.042586	-0.767967	0.298498	-1.428955	0.311768	-0.436279
47041		12.912145	1.401309	3.314018	0.719796	-0.822544	0.268530	-1.429199	0.316162	-0.423584
47042		13.226753	1.004126	4.316794	0.492157	-0.779959	0.182463	-1.431396	0.313721	-0.410645
47043		14.462157	1.223398	4.467830	0.336843	-0.947768	0.029457	-1.433594	0.313721	-0.406250
47044		16.781925	1.194029	4.163809	0.271432	-1.048683	-0.135786	-1.444336	0.304932	-0.391113
47045		17.022278	1.256740	5.503950	0.523238	-0.260691	-0.213383	-1.441895	0.296143	-0.392822
47046		12.533023	2.158608	6.224327	0.606617	0.600651	-0.104235	-1.441895	0.298340	-0.403809
47047		8.508292	1.139473	2.680420	0.055985	0.433259	0.074790	-1.437500	0.296143	-0.410156
47048		6.196784	-0.517991	-1.842917	-0.399301	0.106707	0.240204	-1.433105	0.296143	-0.410156
47049		4.218484	-1.388289	-5.165668	-0.880152	-0.035640	0.361979	-1.435547	0.304932	-0.406006
47050		2.658764	-2.473553	-6.754222	-0.926664	-0.457894	0.549752	-1.437988	0.309326	-0.393311
47051		3.281731	-2.894184	-5.801369	-0.671746	-1.348905	0.682429	-1.447510	0.329102	-0.363770
47052		6.153077	-3.835732	-2.952586	-0.630067	-2.027905	0.654388	-1.450195	0.337891	-0.333740
47053		9.338925	-4.796426	0.583778	-0.672030	-2.042597	0.478630	-1.459473	0.346680	-0.303955
47054		11.852390	-4.677061	2.318320	-0.739619	-1.668438	0.269063	-1.461914	0.355469	-0.284668
47055		13.143789	-3.631441	1.799965	-0.781008	-1.228896	0.065047	-1.462402	0.362061	-0.263428
47056		13.657954	-3.141583	0.127417	-0.742582	-0.948345	-0.080962	-1.466553	0.353271	-0.248047
47057		12.798706	-2.189208	-1.084860	-0.432896	-0.726141	-0.163870	-1.473145	0.355469	-0.239502
47058		11.023674	-1.162421	-1.497792	0.018387	-0.658066	-0.168536	-1.475586	0.353271	-0.226563
47059		9.709654	-0.123749	-1.263605	0.339506	-0.725352	-0.092773	-1.475586	0.355469	-0.211670
47060		8.427951	0.234845	-0.607547	0.464589	-0.956060	0.094133	-1.477783	0.355469	-0.205078
47061		7.497816	0.260353	0.272708	0.438519	-1.284270	0.246328	-1.478027	0.353027	-0.181396
47062		7.583240	-0.139275	0.750207	0.266803	-1.562258	0.357471	-1.480713	0.361816	-0.157959
47063		7.966992	-0.047841	0.779370	-0.023288	-1.754341	0.375398	-1.480957	0.361816	-0.127686
47064		8.462656	0.764079	0.519113	-0.528981	-1.806535	0.299056	-1.485840	0.377197	-0.100098
47065		8.818203	0.078427	-0.165881	-1.189405	-1.748331	0.168839	-1.488281	0.377197	-0.069824
47066		10.139066	-1.122267	-0.547663	-1.512589	-1.724818	-0.012073	-1.492920	0.377197	-0.033203
47067		10.388647	-1.005267	-0.604695	-1.531815	-1.533596	-0.073911	-1.493164	0.379150	-0.009766
47068		10.866368	-2.067670	-0.627295	-1.446003	-1.415542	-0.147622	-1.491211	0.379150	0.016357
47069		10.561537	-1.922004	-0.861854	-1.028993	-1.210664	-0.095571	-1.495850	0.379150	0.041992
47070		8.966098	-1.735672	-0.612302	-0.801287	-1.101399	-0.055797	-1.489258	0.370117	0.057617
47071		8.307131	-1.775201	-0.280343	-0.746706	-1.225665	-0.062700	-1.491699	0.376709	0.087402
47072		8.876590	-1.146558	-0.073537	-0.779262	-1.479133	-0.015359	-1.498535	0.378906	0.108887
47073		9.313250	-0.942084	-0.546192	-0.669651	-1.611993	0.061258	-1.492188	0.376709	0.135010
47074		9.625102	-0.602378	-0.402163	-0.552774	-1.628696	0.079377	-1.492432	0.378906	0.162842
47075		9.379966	-0.914133	-0.478836	-0.500009	-1.485157	0.096888	-1.486328	0.381104	0.188721
47076		9.237859	-0.965624	-0.304363	-0.443317	-1.321249	0.087159	-1.486328	0.380859	0.208252
47077		9.100984	-0.925280	0.012541	-0.520230	-1.194414	0.068295	-1.477783	0.383057	0.229736
47078		9.366889	-0.307600	1.073066	-0.920315	-1.078903	0.006901	-1.486816	0.380859	0.249268
47079		9.629272	-0.457560	1.113424	-1.343318	-0.935984	-0.014187	-1.486816	0.376465	0.264404
47080		9.650902	-0.741933	0.967012	-1.464821	-0.842017	-0.032584	-1.475830	0.374268	0.288330
47081		9.511282	-1.069176	0.553616	-1.448853	-0.850124	-0.054706	-1.484619	0.369629	0.305664
47082		9.294990	-1.497143	-0.140955	-1.271052	-0.968819	-0.067196	-1.473877	0.369629	0.325195
47083		9.407726	-1.872123	-0.689109	-0.965431	-1.109174	-0.073855	-1.474121	0.367432	0.346680
47084		9.782327	-1.888638	-0.942759	-0.704041	-1.152819	-0.078580	-1.478271	0.358398	0.370605
47085		10.058289	-1.805679	-0.998016	-0.580903	-1.062374	-0.074406	-1.465576	0.362793	0.383545
47086		10.022258	-1.876751	-0.912968	-0.508757	-0.936596	-0.064774	-1.465576	0.358398	0.405273
47087		9.825825	-1.876818	-0.713367	-0.513828	-0.833845	-0.055943	-1.463379	0.358398	0.418213
47088		9.674448	-1.729521	-0.511713	-0.613387	-0.772650	-0.046632	-1.463379	0.356201	0.427002
47089		9.640562	-1.458975	-0.484955	-0.765608	-0.731037	-0.039896	-1.461426	0.351807	0.442139
47090		9.709267	-1.155317	-0.787332	-0.895159	-0.730369	-0.044423	-1.454834	0.351563	0.457520
47091		9.697365	-1.040225	-1.010311	-0.896977	-0.758781	-0.048201	-1.448242	0.340576	0.475098
47092		9.788149	-0.949755	-1.256506	-0.819627	-0.790969	-0.068892	-1.446045	0.338379	0.490234
47093		9.745053	-0.796915	-1.374785	-0.752910	-0.793056	-0.102625	-1.452637	0.336182	0.500977
47094		9.917496	-0.534194	-1.625330	-0.766975	-0.765706	-0.124826	-1.443848	0.324951	0.516602
47095		9.853145	-0.305612	-1.764653	-0.848451	-0.681887	-0.137349	-1.443848	0.324951	0.529541
47096		9.982655	-0.283250	-1.671160	-0.931020	-0.639056	-0.156055	-1.435303	0.324951	0.544678
47097		10.102263	-0.528273	-1.598040	-1.000142	-0.584658	-0.170617	-1.439697	0.320557	0.555420
47098		10.132906	-0.977906	-1.716122	-1.072342	-0.530496	-0.201227	-1.437012	0.304932	0.566650
47099		10.313873	-1.541673	-1.650980	-1.112604	-0.456694	-0.230612	-1.441406	0.298340	0.577637
47100		10.379757	-1.843773	-1.636066	-1.139797	-0.406381	-0.257220	-1.427979	0.289307	0.586670
47101		10.507492	-2.019531	-1.466962	-1.228568	-0.372580	-0.269292	-1.432129	0.271729	0.593506
47102		10.791320	-2.034498	-1.637643	-1.171176	-0.375157	-0.244960	-1.429932	0.267090	0.608887
47103		11.070282	-2.135156	-1.276207	-0.982928	-0.393939	-0.200102	-1.425293	0.258301	0.615723
47104		11.218100	-1.836818	-0.630488	-0.833811	-0.385624	-0.154972	-1.423096	0.256104	0.624268
47105		11.377225	-1.690671	-0.271279	-0.778005	-0.323461	-0.116815	-1.427490	0.247070	0.635254
47106		11.330057	-1.278152	0.299874	-0.890918	-0.189815	-0.081133	-1.420654	0.238281	0.642090
47107		11.134836	-1.385389	0.547242	-1.026394	-0.077529	-0.073531	-1.429199	0.231689	0.637939
47108		11.696839	-2.104159	0.321789	-1.026705	0.044097	-0.093298	-1.428955	0.227295	0.637939
47109		11.955109	-2.376102	0.328528	-0.867423	0.191108	-0.088378	-1.426758	0.218262	0.642578
47110		11.710089	-2.157941	0.223513	-0.788282	0.243065	-0.084468	-1.430908	0.216064	0.644775
47111		11.831106	-2.243540	0.138369	-0.614587	0.287083	-0.083851	-1.430664	0.211670	0.629883
47112		12.465785	-2.660332	0.233657	-0.281287	0.448193	-0.084554	-1.430664	0.205078	0.627930
47113		12.737341	-2.878191	-0.017615	-0.039244	0.679240	-0.080745	-1.434814	0.205078	0.619141
47114		12.611038	-2.663107	0.167991	0.167477	0.892788	-0.100324	-1.438965	0.202881	0.593262
47115		12.400206	-2.362509	1.184394	0.719159	1.143680	-0.137678	-1.447754	0.211914	0.575684
47116		12.302673	-1.186207	2.274946	1.475325	1.522902	-0.140016	-1.456299	0.214111	0.549561
47117		11.284449	0.355039	1.042815	1.366389	1.856211	-0.070659	-1.467041	0.216309	0.519287
47118		11.252829	1.190018	0.920425	0.995668	2.291520	-0.182181	-1.479980	0.218506	0.480225
47119		10.425366	2.370186	2.349176	0.893220	2.703604	-0.225958	-1.490479	0.220947	0.430420
47120		9.802626	3.133635	2.105100	0.372463	2.770479	-0.204569	-1.500977	0.216553	0.393799
47121		10.652329	2.161390	0.906198	-0.244336	2.795319	-0.171194	-1.509277	0.212158	0.350830
47122		10.938803	1.412447	-0.110056	-0.627894	2.729511	-0.059256	-1.519775	0.207764	0.309814
47123		11.521355	0.184333	-1.446131	-1.063795	2.515626	0.114219	-1.528076	0.203369	0.273193
47124		12.592845	-1.478117	-2.496436	-1.132168	2.324343	0.290129	-1.534424	0.208008	0.240479
47125		12.725007	-2.033721	-3.171247	-0.896135	2.179862	0.487648	-1.529785	0.208008	0.208252
47126		12.709681	-2.275632	-3.218893	-0.441909	2.049174	0.669134	-1.531982	0.219238	0.175537
47127		12.402577	-1.629150	-2.863014	0.176265	2.005260	0.799077	-1.525635	0.230225	0.140869
47128		11.740157	-0.922226	-2.307454	0.652396	2.033085	0.787851	-1.525391	0.237061	0.110352
47129		11.841329	-0.418541	-1.818215	1.054734	2.073786	0.735805	-1.531982	0.250488	0.071289
47130		11.834006	0.173097	-1.418429	1.412682	2.095181	0.713820	-1.525635	0.263916	0.034180
47131		11.944330	0.266356	-0.468655	1.513672	2.031195	0.682280	-1.525391	0.266113	0.003906
47132		12.341456	-0.291193	-0.162108	1.541272	1.977776	0.685588	-1.514160	0.272949	-0.037109
47133		11.764739	0.067422	0.284457	1.558219	1.975318	0.676138	-1.510010	0.283936	-0.069824
47134		10.831254	0.744716	0.487206	1.492226	1.990255	0.650929	-1.505371	0.290771	-0.102295
47135		10.444684	0.564363	0.423169	1.277861	1.948570	0.597348	-1.498535	0.290771	-0.140869
47136		9.579052	-0.137586	0.558229	1.016722	1.959578	0.565375	-1.494385	0.304199	-0.169434
47137		8.817860	-0.613684	0.792544	0.886686	1.878078	0.505359	-1.480957	0.304443	-0.201660
47138		9.088673	-1.271626	0.199967	0.956325	1.792744	0.420711	-1.469971	0.306641	-0.227295
47139		9.467822	-1.163897	-0.096399	1.138725	1.757801	0.374309	-1.465088	0.306641	-0.261963
47140		9.816680	-0.734116	-0.355541	1.387932	1.697878	0.365361	-1.453857	0.302490	-0.287598
47141		9.387501	-0.689707	-0.370716	1.474370	1.688629	0.314808	-1.447266	0.302490	-0.313232
47142		8.753128	0.069127	-0.261156	1.544792	1.614734	0.280383	-1.431396	0.295898	-0.343262
47143		8.231163	0.949305	0.021971	1.484589	1.533876	0.231367	-1.429199	0.295898	-0.364746
47144		7.938748	0.639317	-0.455840	1.491107	1.433386	0.192831	-1.422363	0.293945	-0.392578
47145		7.603421	0.841169	-0.370780	1.543220	1.379314	0.113649	-1.415283	0.287354	-0.414063
47146		7.636934	1.105485	-0.120112	1.494165	1.265128	0.074753	-1.408447	0.280762	-0.430908
47147		7.447677	0.742124	0.036274	1.349402	1.202229	0.042571	-1.395020	0.271973	-0.454346
47148		7.200118	0.751340	0.391219	1.197351	1.179806	0.030778	-1.388184	0.267578	-0.473633
47149		6.902676	0.633853	0.939977	0.949826	1.115627	0.048381	-1.387939	0.267578	-0.490723
47150		6.608514	0.447777	1.149013	0.736760	1.024702	0.084624	-1.381104	0.258789	-0.501221
47151		6.220662	0.297911	1.281532	0.605251	0.912298	0.132040	-1.374512	0.260986	-0.516357
47152		6.184732	-0.162279	1.340950	0.475896	0.781995	0.168302	-1.367676	0.256592	-0.524902
47153		6.170911	-0.701538	1.257197	0.487346	0.646229	0.218532	-1.367676	0.256592	-0.531250
47154		6.025039	-0.693992	1.411382	0.572549	0.504000	0.252168	-1.358887	0.263428	-0.546387
47155		5.654012	-0.481418	1.609681	0.609598	0.346730	0.269952	-1.356689	0.263428	-0.548584
47156		5.348072	-0.087709	1.689539	0.640633	0.151253	0.267599	-1.358887	0.263428	-0.546387
47157		5.198629	0.435131	1.679728	0.640631	-0.043388	0.248291	-1.356689	0.261230	-0.550781
47158		5.232179	0.498814	1.631873	0.591095	-0.247014	0.201580	-1.361084	0.261230	-0.550781
47159		5.399267	0.395714	2.093116	0.545684	-0.461751	0.133893	-1.365479	0.261230	-0.544189
47160		5.673671	0.211311	2.826512	0.474003	-0.684946	0.067890	-1.374268	0.260986	-0.529297
47161		6.301243	0.146658	3.257917	0.399021	-0.834804	0.033782	-1.385742	0.272217	-0.523193
47162		6.961154	0.164780	3.430824	0.259443	-0.927758	0.050773	-1.385498	0.267578	-0.514404
47163		7.501515	0.270168	3.541937	0.099703	-1.003871	0.105230	-1.392334	0.269775	-0.501709
47164		8.445909	0.104252	3.875128	-0.048409	-1.099866	0.172899	-1.401367	0.274170	-0.484619
47165		9.139160	-0.329426	4.566826	-0.041072	-1.112138	0.244140	-1.406006	0.278564	-0.471924
47166		9.615621	-0.696271	5.752301	0.193386	-1.034081	0.294524	-1.412842	0.289551	-0.457031
47167		9.946507	-0.933269	6.962507	0.608965	-0.873140	0.308608	-1.412842	0.287354	-0.450684
47168		9.925751	-0.676007	7.915486	0.929948	-0.699978	0.294644	-1.419434	0.289551	-0.444336
47169		10.004412	-0.432231	8.419572	0.934778	-0.516810	0.235522	-1.421875	0.291748	-0.439941
47170		10.518426	0.451796	9.217296	0.851887	-0.276808	0.145615	-1.421631	0.285156	-0.444092
47171		11.154884	1.415629	10.159242	0.583184	-0.080591	0.067825	-1.424072	0.296143	-0.444580
47172		11.725840	1.432963	10.523601	0.315904	0.024753	0.009932	-1.428223	0.289551	-0.446533
47173		11.722287	0.937985	9.698373	0.162154	0.069123	-0.009048	-1.424072	0.296143	-0.448730
47174		11.416500	0.377608	8.593662	0.038205	0.027946	0.013155	-1.423828	0.289551	-0.452881
47175		10.786147	0.335704	7.855570	0.017727	0.023628	0.054290	-1.423828	0.287354	-0.455078
47176		9.588337	0.547165	7.415824	0.135012	0.091843	0.145679	-1.419434	0.291748	-0.450684
47177		8.464140	0.847547	6.271900	0.401386	0.140671	0.248183	-1.419678	0.296143	-0.453125
47178		7.809682	1.072470	3.702106	0.841132	0.217051	0.328313	-1.417236	0.291748	-0.465820
47179		8.015448	1.456527	1.888344	1.172668	0.157802	0.342715	-1.419434	0.296387	-0.476807
47180		9.597979	2.094344	1.205130	1.328778	-0.154181	0.287205	-1.421387	0.285156	-0.474365
47181		11.385909	2.564529	1.638223	1.302124	-0.316760	0.193106	-1.421387	0.287354	-0.476563
47182		12.863927	2.852761	2.775687	1.429970	-0.310473	0.111379	-1.425293	0.274170	-0.482666
47183		14.156855	3.009200	3.897647	1.727332	-0.272098	0.013062	-1.420898	0.267578	-0.484619
47184		15.627614	2.517492	5.341108	1.329375	-0.151934	-0.255453	-1.424805	0.254150	-0.486572
47185		14.691006	1.378576	5.696725	0.729361	0.193857	-0.376927	-1.420166	0.243164	-0.490479
47186		12.374492	1.818145	4.911973	0.302030	0.350646	-0.151941	-1.428711	0.243164	-0.497070
47187		9.131006	2.049887	3.671760	0.043992	0.262120	0.133769	-1.415527	0.240967	-0.501221
47188		7.594176	0.306145	-0.718070	-0.700819	-0.251084	0.220329	-1.422607	0.251953	-0.492920
47189		6.620150	-0.769512	-3.312799	-1.242680	-0.433533	0.299935	-1.427246	0.260742	-0.478027
47190		5.262632	-1.989275	-4.509018	-1.306900	-0.902869	0.488257	-1.429688	0.267334	-0.463135
47191		5.412952	-4.416069	-4.476566	-0.827356	-1.611356	0.706645	-1.436768	0.280518	-0.433350
47192		6.600222	-5.917421	-1.969812	-0.475471	-2.065587	0.824466	-1.446289	0.293945	-0.403564
47193		8.289928	-5.758905	-0.582686	-0.802853	-1.982220	0.781855	-1.447021	0.313721	-0.376221
47194		9.896106	-4.628197	-1.711031	-1.269200	-1.745756	0.546855	-1.458252	0.322510	-0.348389
47195		11.827659	-3.363936	-2.026383	-1.065178	-1.515169	0.287395	-1.463135	0.329102	-0.327148
47196		13.078054	-2.017504	-1.082755	-0.471284	-1.321854	0.144897	-1.467773	0.333496	-0.305664
47197		12.700296	-0.491606	-0.402087	0.041053	-1.159963	0.070544	-1.467773	0.331299	-0.288574
47198		10.953640	0.144726	0.334100	0.236765	-1.137137	0.032884	-1.470215	0.328857	-0.269043
47199		9.437058	-0.178744	0.779671	0.215025	-1.296490	0.028820	-1.481201	0.331055	-0.251953
47200		8.409524	-0.431316	1.263068	0.148115	-1.505064	0.074482	-1.485840	0.333252	-0.230469
47201		8.160463	-0.650802	1.704180	-0.179374	-1.690394	0.155039	-1.488281	0.333252	-0.204590
47202		8.104370	-1.151511	1.486568	-0.505055	-1.773382	0.234968	-1.488525	0.335205	-0.167969
47203		8.362562	-1.375225	1.204673	-0.707199	-1.836872	0.288356	-1.491211	0.341797	-0.137939
47204		9.061062	-1.936182	0.388211	-0.841034	-1.880446	0.297245	-1.496094	0.354980	-0.108154
47205		9.474007	-1.401736	-0.477311	-0.944000	-1.775859	0.219788	-1.494141	0.354980	-0.084473
47206		9.544187	-1.215027	-0.984671	-1.163414	-1.542268	0.119918	-1.494629	0.359375	-0.054443
47207		9.565234	-1.244507	-1.321669	-1.192435	-1.374178	0.024445	-1.497070	0.361572	-0.028564
47208		9.769514	-0.949686	-1.197012	-1.064989	-1.246442	-0.056048	-1.499268	0.363770	-0.011475
47209		9.760536	-0.717282	-0.810956	-0.991006	-1.078061	-0.108492	-1.508301	0.359131	0.010254
47210		9.446838	-0.449408	-0.407132	-1.005658	-1.010219	-0.090315	-1.503906	0.361328	0.027344
47211		9.605481	-0.602000	-0.043340	-1.080280	-1.036988	-0.066099	-1.506348	0.363525	0.051025
47212		9.289484	-0.332993	0.276393	-1.002325	-1.032974	-0.048886	-1.504150	0.356934	0.068604
47213		9.080850	0.618765	1.397807	-1.224228	-1.149960	0.006234	-1.504639	0.359131	0.096436
47214		9.098240	-0.582908	0.892328	-1.252654	-1.320647	0.039346	-1.500244	0.358887	0.118164
47215		9.163289	-0.994751	0.965953	-1.198334	-1.425499	0.103954	-1.502686	0.356689	0.150391
47216		9.423973	-1.759338	0.537781	-1.280586	-1.492261	0.183377	-1.500732	0.358887	0.178467
47217		8.899284	-2.201418	-0.064070	-1.276337	-1.445162	0.212698	-1.490234	0.365479	0.202148
47218		9.307759	-2.441047	-0.935081	-1.274433	-1.324846	0.154267	-1.497070	0.365479	0.228027
47219		9.641343	-2.501776	-1.285923	-1.194587	-1.031037	0.113792	-1.494873	0.363037	0.245361
47220		9.194336	-2.458235	-1.472302	-1.256199	-0.826891	0.062956	-1.488281	0.356445	0.264893
47221		9.342963	-1.596877	-1.824606	-1.378086	-0.866378	0.021018	-1.493164	0.363037	0.284180
47222		9.361983	-1.109484	-1.539945	-1.601618	-0.911619	-0.021583	-1.488770	0.358643	0.305908
47223		9.912322	-1.247324	-1.754243	-1.391718	-1.062435	-0.035974	-1.480225	0.354004	0.329834
47224		10.514634	-0.919113	-0.672285	-0.829615	-1.147311	-0.019536	-1.484619	0.354004	0.355713
47225		10.676069	-0.871660	0.828749	-0.341898	-1.121913	-0.004447	-1.482666	0.354004	0.366455
47226		10.463271	-0.906653	2.424951	-0.075372	-1.051363	0.019477	-1.473877	0.349609	0.379639
47227		10.020776	-1.102025	3.042661	-0.213062	-0.965530	0.024882	-1.478516	0.356201	0.394531
47228		9.718422	-1.404550	2.275569	-0.558332	-0.896696	0.007321	-1.469971	0.354004	0.414063
47229		9.685571	-1.502126	0.959657	-0.860134	-0.825717	-0.038455	-1.472168	0.349365	0.431396
47230		9.595991	-1.064536	-0.180965	-1.033012	-0.716025	-0.096050	-1.463379	0.344971	0.444580
47231		9.504330	-0.802360	-0.953491	-1.050994	-0.667200	-0.148762	-1.461182	0.342773	0.455322
47232		9.465863	-0.749923	-1.056607	-0.887568	-0.635871	-0.179005	-1.463135	0.324951	0.470947
47233		9.382452	-0.849426	-0.805532	-0.678654	-0.635205	-0.181971	-1.456543	0.324951	0.481934
47234		9.273473	-1.102100	-0.792353	-0.516764	-0.626610	-0.176176	-1.460938	0.324951	0.494873
47235		9.198134	-1.660394	-1.401956	-0.407102	-0.603600	-0.175845	-1.456787	0.324951	0.507813
47236		9.201057	-2.051518	-2.053333	-0.400979	-0.591248	-0.176196	-1.458984	0.322754	0.516357
47237		9.213915	-2.168656	-2.621191	-0.469952	-0.589119	-0.168366	-1.454346	0.313965	0.523193
47238		9.318893	-1.801626	-2.986683	-0.429065	-0.602420	-0.141403	-1.452393	0.315918	0.540283
47239		9.566032	-1.134944	-2.805707	-0.267451	-0.637446	-0.119808	-1.452393	0.311523	0.546875
47240		9.783407	-0.414326	-2.516115	-0.163195	-0.630054	-0.117567	-1.446045	0.313721	0.557861
47241		9.950445	0.025412	-2.206739	-0.210863	-0.602853	-0.156969	-1.446045	0.318115	0.564209
47242		10.297228	0.178239	-1.900944	-0.462986	-0.547780	-0.213882	-1.443604	0.302734	0.581787
47243		10.383455	0.078286	-1.620708	-0.733549	-0.499805	-0.272406	-1.441406	0.293701	0.588623
47244		10.469664	-0.244034	-1.695201	-0.878400	-0.492295	-0.333406	-1.441162	0.284912	0.597412
47245		10.678341	-0.693132	-1.934631	-0.920862	-0.460270	-0.379368	-1.438721	0.271484	0.604248
47246		10.787640	-1.381241	-2.110287	-0.872714	-0.417396	-0.403301	-1.434326	0.267090	0.619629
47247		10.977737	-1.889946	-1.664242	-0.825636	-0.348482	-0.397143	-1.431885	0.251709	0.624268
47248		11.721742	-3.274274	-1.301674	-0.831650	-0.289019	-0.380256	-1.438232	0.242676	0.631104
47249		12.665163	-4.185900	-1.222867	-0.718565	-0.154674	-0.313783	-1.440430	0.242676	0.633057
47250		12.821705	-4.242892	-0.697759	-0.499694	-0.090447	-0.225386	-1.436035	0.240479	0.635498
47251		12.985598	-3.658821	-0.364865	-0.186519	-0.055176	-0.105507	-1.437988	0.236084	0.637695
47252		13.152823	-2.565818	0.293461	0.077749	0.024712	-0.017410	-1.431396	0.233887	0.633545
47253		13.777607	-1.950640	0.873558	0.270676	0.257369	0.021711	-1.433594	0.236084	0.633301
47254		13.938130	-1.442313	1.460651	0.391852	0.559872	0.027698	-1.433594	0.240479	0.620361
47255		13.716849	-1.123576	2.612621	0.531165	0.878600	-0.025498	-1.439941	0.238281	0.603027
47256		13.479374	-0.488572	4.016034	0.812682	1.247076	-0.109291	-1.450684	0.240479	0.581299
47257		12.731458	0.211618	4.085392	0.989113	1.733001	-0.189420	-1.452881	0.245117	0.548828
47258		12.045614	0.531911	2.604522	0.747379	2.120003	-0.246811	-1.469727	0.238525	0.512207
47259		11.310975	1.461218	2.409329	0.496191	2.623906	-0.348452	-1.480469	0.242920	0.466553
47260		10.340270	2.570480	2.127911	0.276560	2.904452	-0.390900	-1.490723	0.231934	0.417236
47261		10.116358	1.885339	0.826809	0.022955	2.935120	-0.343858	-1.510010	0.227539	0.371826
47262		10.374633	1.327094	0.231174	-0.076555	2.991471	-0.260139	-1.511475	0.220947	0.333252
47263		11.137805	0.391594	-0.839031	-0.189190	2.908307	-0.175023	-1.528564	0.216797	0.287842
47264		11.772282	-0.801999	-2.406728	-0.373788	2.818841	-0.054085	-1.532471	0.216797	0.244629
47265		12.086803	-1.343466	-2.933771	-0.288693	2.665462	0.106592	-1.536621	0.216797	0.205811
47266		12.423643	-1.383238	-3.146939	-0.037740	2.471573	0.248703	-1.538574	0.223633	0.164551
47267		12.270706	-1.676920	-3.208392	0.277577	2.330209	0.369663	-1.540527	0.225830	0.130127
47268		11.940492	-1.250926	-3.002032	0.821615	2.333298	0.419393	-1.540527	0.230469	0.091064
47269		11.706781	-0.371028	-2.128260	1.134009	2.319344	0.457426	-1.531250	0.228271	0.048096
47270		11.812282	0.151523	-1.691564	1.364860	2.219016	0.512612	-1.535645	0.241699	0.015381
47271		11.980291	0.658771	-1.027803	1.508137	2.126243	0.536627	-1.531006	0.243896	-0.019287
47272		11.936702	1.416077	-0.137247	1.389584	2.056122	0.556886	-1.524414	0.248535	-0.058105
47273		11.489568	1.234946	0.491714	1.121348	1.947881	0.559152	-1.517822	0.255371	-0.090576
47274		11.362625	1.141655	0.697067	0.922493	1.874062	0.600558	-1.510986	0.261963	-0.123047
47275		10.800618	0.868440	0.172121	0.800788	1.856338	0.637203	-1.502197	0.266602	-0.153320
47276		10.773074	-0.197158	-1.252021	0.859775	1.899853	0.687169	-1.493408	0.277588	-0.185791
47277		10.027369	-1.111740	-1.583578	1.051633	2.052761	0.639645	-1.484375	0.277832	-0.216064
47278		9.290303	-1.861594	-1.126841	1.330092	2.038252	0.642373	-1.477539	0.277832	-0.252441
47279		8.745542	-2.372094	-0.633525	1.519274	1.932354	0.540997	-1.468750	0.280273	-0.278320
47280		9.158776	-2.465643	-0.999918	1.689771	1.831943	0.442613	-1.457520	0.284668	-0.315186
47281		9.162857	-1.563353	-0.952271	1.934628	1.844311	0.360024	-1.446289	0.280518	-0.347168
47282		8.885223	-0.439405	-0.067804	1.771557	1.803333	0.273630	-1.439453	0.271729	-0.370605
47283		8.566186	-0.547034	-0.490682	1.811340	1.688341	0.216771	-1.430176	0.269531	-0.402832
47284		8.404847	0.447163	0.069800	1.748557	1.618842	0.174627	-1.421143	0.260742	-0.432617
47285		8.062449	0.397762	-0.013575	1.669056	1.487535	0.161558	-1.400879	0.251953	-0.458252
47286		7.901341	0.296457	0.024109	1.711558	1.399267	0.122357	-1.398438	0.245361	-0.472900
47287		7.139621	1.063689	0.672672	1.640480	1.348815	0.075087	-1.387207	0.243164	-0.507324
47288		7.014798	0.964228	0.764846	1.408803	1.118148	0.083299	-1.378174	0.236572	-0.513672
47289		6.716813	1.327099	0.841899	1.153452	0.941662	0.087157	-1.380127	0.229980	-0.528564
47290		6.380280	1.356857	0.935652	0.813582	0.739794	0.119104	-1.371338	0.232178	-0.537109
47291		6.078669	0.899293	1.028615	0.520141	0.529915	0.163472	-1.371094	0.227783	-0.543457
47292		5.824055	0.389219	0.901412	0.343150	0.334104	0.204836	-1.368896	0.225586	-0.547607
47293		5.620562	-0.055746	0.732578	0.277681	0.152232	0.245550	-1.364746	0.236816	-0.545898
47294		5.372555	-0.228438	0.710586	0.281731	-0.044669	0.262701	-1.364990	0.236816	-0.543701
47295		5.011934	-0.177489	0.783035	0.297370	-0.248248	0.264000	-1.369385	0.236816	-0.539307
47296		4.552089	0.085019	0.831877	0.300258	-0.467082	0.259720	-1.371826	0.245605	-0.535400
47297		4.599513	0.071860	0.616879	0.316609	-0.730396	0.254047	-1.369629	0.245605	-0.526611
47298		4.657302	0.104468	0.445135	0.340852	-0.967010	0.229840	-1.383057	0.250000	-0.511719
47299		4.585039	0.218237	0.514716	0.330988	-1.182864	0.176238	-1.389648	0.254395	-0.496826
47300		5.390283	0.212606	0.695937	0.325300	-1.423593	0.118319	-1.396240	0.249756	-0.479492
47301		6.186060	0.239282	1.160741	0.310477	-1.597107	0.096455	-1.403320	0.256348	-0.449707
47302		7.411887	0.204950	1.729514	0.250335	-1.688056	0.107387	-1.416748	0.258545	-0.432617
47303		8.896447	0.002031	2.762479	0.159416	-1.678399	0.147801	-1.421387	0.260742	-0.406738
47304		10.603558	-0.186531	4.301017	0.262456	-1.568839	0.230316	-1.434814	0.269531	-0.394287
47305		12.168926	-0.567889	6.035043	0.554121	-1.310808	0.290306	-1.437012	0.267090	-0.376953
47306		13.402907	-0.606727	8.440938	0.923097	-0.870056	0.255398	-1.443848	0.276123	-0.373047
47307		14.328715	0.025095	11.469459	1.167477	-0.290217	0.125712	-1.443848	0.276123	-0.375000
47308		15.082214	1.102839	13.888131	1.445792	0.271070	-0.058523	-1.443359	0.264893	-0.381348
47309		15.379602	1.822186	15.640720	1.423008	0.725657	-0.151403	-1.438721	0.260498	-0.402588
47310		13.978521	1.886112	14.797603	0.771537	1.075054	-0.134437	-1.434082	0.253906	-0.419678
47311		11.359486	1.496907	11.376337	-0.162684	0.970135	-0.091939	-1.434082	0.254150	-0.428223
47312		9.215824	0.198521	7.911066	-0.617532	0.752465	0.009990	-1.425293	0.256348	-0.437012
47313		7.255727	-0.390327	5.415537	-0.209712	0.623905	0.148162	-1.416504	0.258545	-0.443359
47314		5.697173	-0.355715	3.722467	0.410218	0.518409	0.237854	-1.414307	0.258545	-0.451904
47315		4.408439	-0.215005	1.785919	0.950609	0.412769	0.284783	-1.416504	0.262939	-0.467285
47316		4.003390	0.363797	0.091053	1.493956	0.265178	0.270670	-1.416260	0.256348	-0.477783
47317		5.700119	1.474870	-0.570102	1.821425	0.002568	0.239124	-1.405029	0.245361	-0.479492
47318		8.630891	2.828431	-1.147939	1.717143	-0.307856	0.193341	-1.416016	0.247559	-0.479736
47319		11.790863	3.967291	-0.434032	1.192474	-0.518150	0.152752	-1.415771	0.240967	-0.475342
47320		15.428818	4.750805	2.464623	0.738797	-0.436687	0.075918	-1.420166	0.238770	-0.475098
47321		16.389765	4.598588	5.936935	0.623354	-0.166552	-0.052311	-1.419922	0.234131	-0.475098
47322		18.193098	3.478740	5.537421	0.265381	-0.172314	-0.043506	-1.417969	0.236328	-0.472900
47323		17.184742	1.488539	5.210655	0.007059	0.419048	0.278104	-1.413574	0.236572	-0.477295
47324		11.082511	1.750516	6.102757	0.273151	0.495142	0.593899	-1.411377	0.238770	-0.485840
47325		7.257437	1.525405	5.585809	0.365988	-0.043079	0.585083	-1.416016	0.251953	-0.488525
47326		5.707073	1.866639	1.385358	-0.896860	-0.180829	0.412367	-1.414063	0.260986	-0.486572
47327		3.764479	1.489942	-5.399604	-2.361156	-0.215284	0.210554	-1.414551	0.269775	-0.469482
47328		2.343829	-0.585653	-8.019048	-1.893390	-1.009620	0.182008	-1.421387	0.274170	-0.448242
47329		4.788479	-2.624486	-5.258480	-0.716163	-2.128933	0.259277	-1.424072	0.287354	-0.414063
47330		8.996272	-5.164675	-2.430298	-0.604702	-2.403313	0.356255	-1.442139	0.293701	-0.375488
47331		11.814286	-6.718130	-1.607031	-1.125119	-1.866349	0.396744	-1.451172	0.302490	-0.350098
47332		12.811500	-6.903708	-2.199525	-1.218963	-1.376077	0.345309	-1.456055	0.311279	-0.326660
47333		13.378557	-5.582515	-1.989431	-0.622653	-1.205466	0.335600	-1.449707	0.315674	-0.313721
47334		12.714157	-3.844753	-1.200649	0.162796	-1.151957	0.351809	-1.454346	0.322266	-0.296631
47335		11.277531	-2.157981	-0.240264	0.695467	-1.125829	0.323667	-1.463379	0.324463	-0.275391
47336		9.975072	-1.002586	0.372257	0.986947	-1.161858	0.287962	-1.468018	0.328857	-0.269043
47337		9.148317	-0.387032	0.537723	1.028516	-1.262471	0.258024	-1.465820	0.326660	-0.249512
47338		8.720734	0.225982	1.228912	0.764023	-1.388068	0.205162	-1.470459	0.331055	-0.232422
47339		8.951317	0.026656	1.370885	0.403930	-1.448743	0.158765	-1.472900	0.331055	-0.210938
47340		9.060504	0.262384	1.790604	-0.053307	-1.430922	0.109668	-1.479736	0.335449	-0.191650
47341		9.462932	-0.134082	1.123988	-0.521202	-1.458721	0.151385	-1.479980	0.342041	-0.161621
47342		9.983202	-1.122352	0.147022	-0.801239	-1.510755	0.191914	-1.484863	0.350830	-0.138184
47343		10.403832	-1.201915	-0.559497	-0.959061	-1.489587	0.232274	-1.480713	0.353027	-0.112305
47344		10.520340	-0.462904	-1.230374	-1.030490	-1.417789	0.232431	-1.485352	0.354980	-0.084473
47345		10.152606	-0.025119	-1.427484	-1.175146	-1.326187	0.242274	-1.492188	0.359375	-0.060791
47346		9.635263	0.324582	-1.109250	-1.258371	-1.240429	0.212109	-1.486084	0.359375	-0.034912
47347		9.527297	0.473914	-0.928478	-1.365178	-1.277592	0.189366	-1.486572	0.372559	-0.015869
47348		8.790472	0.800874	-0.388228	-1.463023	-1.314394	0.195724	-1.480225	0.372559	0.014404
47349		8.535285	0.371112	-0.398837	-1.558975	-1.391391	0.177262	-1.484863	0.379150	0.035645
47350		8.263288	1.078070	0.784865	-1.798706	-1.426562	0.132890	-1.489502	0.379150	0.068115
47351		8.170320	-0.161109	0.471979	-1.948460	-1.451665	0.105745	-1.489746	0.381104	0.100342
47352		8.083201	-1.068528	0.764998	-2.066095	-1.385165	0.074411	-1.487793	0.381104	0.128418
47353		7.777022	-2.241349	0.698151	-2.008085	-1.313185	0.079680	-1.481445	0.381104	0.154297
47354		7.839856	-3.262442	0.360064	-1.895624	-1.296415	0.081942	-1.488281	0.381104	0.182373
47355		8.237310	-4.402881	-0.468622	-1.662812	-1.307797	0.072973	-1.484131	0.380859	0.212646
47356		9.088585	-5.212235	-1.162496	-1.303253	-1.402493	0.058030	-1.479980	0.376465	0.236572
47357		10.430125	-5.533004	-1.793069	-0.877259	-1.526770	0.077433	-1.476074	0.385254	0.262207
47358		11.552698	-4.981241	-1.499836	-0.565977	-1.500230	0.078766	-1.473877	0.378662	0.290283
47359		11.850514	-3.818735	-0.548817	-0.447234	-1.350519	0.070629	-1.467529	0.378662	0.312012
47360		10.857942	-2.296201	0.513884	-0.392387	-1.202572	0.081300	-1.463379	0.383057	0.327148
47361		9.575800	-0.535771	0.991456	-0.622143	-1.217024	0.059006	-1.461426	0.385254	0.354980
47362		9.314680	0.491186	0.216307	-0.615295	-1.273031	0.078994	-1.452881	0.382813	0.370361
47363		9.398292	1.667916	0.039049	-0.377269	-1.168804	0.101302	-1.453125	0.389404	0.385254
47364		9.972276	2.237833	0.336031	-0.098835	-1.053047	0.114232	-1.451172	0.389404	0.404541
47365		10.601224	2.205696	1.180399	-0.092611	-0.897025	0.112055	-1.442627	0.391602	0.417480
47366		10.945494	1.648351	1.342029	-0.557358	-0.655587	0.099010	-1.438232	0.389404	0.432861
47367		10.743603	0.715749	0.780778	-1.071450	-0.438258	0.108604	-1.436035	0.389404	0.439209
47368		9.926866	-0.004162	-0.260664	-1.413623	-0.348899	0.134688	-1.434082	0.391602	0.454346
47369		9.258378	-0.324035	-1.831364	-1.603865	-0.383364	0.141737	-1.429443	0.380615	0.467773
47370		8.959073	-0.502083	-3.171326	-1.645563	-0.436320	0.108784	-1.431641	0.371582	0.480713
47371		8.721179	-0.571187	-3.434026	-1.489688	-0.487647	0.050391	-1.429443	0.371582	0.489502
47372		8.601628	-0.557421	-2.865621	-1.313000	-0.542197	-0.004808	-1.429443	0.367188	0.506836
47373		8.677332	-0.592980	-2.488544	-1.242808	-0.596209	-0.052360	-1.425293	0.364990	0.521973
47374		8.955173	-0.791602	-2.718257	-1.272210	-0.664182	-0.077113	-1.425049	0.351563	0.535400
47375		9.475686	-1.119249	-3.102058	-1.285836	-0.722155	-0.096688	-1.422852	0.347168	0.552734
47376		9.891353	-1.399277	-2.993613	-1.197605	-0.775327	-0.114077	-1.416016	0.338135	0.568115
47377		10.153813	-1.348225	-2.635941	-1.018511	-0.845928	-0.135083	-1.409424	0.329346	0.587891
47378		10.339182	-1.347731	-2.220741	-0.817434	-0.869701	-0.150053	-1.413818	0.324951	0.598877
47379		10.197203	-1.378663	-1.515838	-0.652793	-0.827384	-0.162593	-1.409668	0.324951	0.620361
47380		10.120980	-1.779521	-0.927150	-0.591119	-0.761209	-0.163421	-1.405029	0.315918	0.627197
47381		10.310065	-1.867600	-0.445314	-0.655487	-0.669672	-0.150337	-1.400879	0.315918	0.640137
47382		10.692990	-1.738688	0.152784	-0.780221	-0.536421	-0.140646	-1.400635	0.302734	0.651367
47383		10.944452	-1.497084	0.432689	-0.931001	-0.426060	-0.130451	-1.396240	0.300293	0.657959
47384		11.079865	-1.552196	0.282079	-1.062381	-0.353080	-0.141987	-1.393799	0.289307	0.662598
47385		11.123613	-1.962903	0.053106	-1.106875	-0.291872	-0.152440	-1.386963	0.280518	0.673584
47386		11.370350	-2.440117	-0.163741	-1.047413	-0.237730	-0.149219	-1.391357	0.271484	0.680176
47387		11.547269	-2.763213	0.094195	-0.903746	-0.156729	-0.134644	-1.397949	0.271484	0.684570
47388		11.599469	-3.331995	0.423696	-0.737018	-0.022677	-0.116567	-1.395264	0.260498	0.684814
47389		11.939084	-3.931475	-0.073280	-0.664281	0.194048	-0.102638	-1.390869	0.258301	0.685059
47390		12.072284	-4.279469	0.085810	-0.491633	0.401998	-0.086958	-1.390625	0.251709	0.680908
47391		12.121016	-4.040646	0.728026	-0.217609	0.457161	-0.073216	-1.397217	0.251709	0.674316
47392		12.610701	-3.596841	0.260374	0.046038	0.492929	-0.076145	-1.399170	0.247314	0.659424
47393		13.288645	-2.860983	0.112814	0.532799	0.666930	-0.092309	-1.405762	0.247314	0.650635
47394		14.075963	-2.208937	0.446745	1.142547	0.963871	-0.111828	-1.414551	0.258301	0.628662
47395		13.805794	-1.199410	1.276905	1.591576	1.296295	-0.126066	-1.416748	0.264893	0.606934
47396		13.080484	-0.042974	1.128508	1.400029	1.591089	-0.157253	-1.425293	0.269531	0.576416
47397		12.493217	0.249826	2.110213	1.112697	2.098552	-0.289634	-1.447021	0.271729	0.543945
47398		11.339899	0.842373	1.489679	0.714241	2.609679	-0.358409	-1.459473	0.267334	0.500732
47399		10.945330	0.284335	-0.092861	0.278047	2.827335	-0.386781	-1.472412	0.267334	0.455322
47400		10.582405	-0.053772	-0.441294	0.237701	2.980629	-0.294603	-1.480469	0.260986	0.401367
47401		11.180829	0.799658	-0.780766	0.162379	2.941767	-0.132713	-1.490967	0.256592	0.364746
47402		12.248947	-0.292080	-1.727936	0.012107	2.917665	-0.024597	-1.503662	0.256592	0.319336
47403		12.780260	0.210438	-2.261426	0.045808	2.835618	0.150889	-1.509766	0.254395	0.280518
47404		13.212054	0.758061	-2.618632	0.068386	2.715000	0.332985	-1.509766	0.263428	0.234863
47405		13.219140	1.530570	-2.365083	-0.000710	2.579126	0.458832	-1.513672	0.261230	0.200439
47406		13.149666	1.774611	-1.924533	-0.054281	2.528075	0.513514	-1.511475	0.276855	0.156982
47407		12.892925	1.422816	-1.851812	0.078093	2.552692	0.529264	-1.515869	0.283691	0.117920
47408		12.556349	1.929820	-1.460683	0.211077	2.600737	0.529897	-1.508789	0.283691	0.074707
47409		13.027929	1.948798	-1.437679	0.219215	2.512965	0.635450	-1.508789	0.294922	0.037842
47410		12.695131	1.819074	-1.548853	0.350117	2.482841	0.616002	-1.504395	0.299316	-0.000977
47411		13.505134	2.166223	-1.136437	0.547209	2.363537	0.699556	-1.495361	0.301758	-0.037598
47412		13.137079	2.536485	-0.331084	0.676908	2.418438	0.684231	-1.488770	0.312988	-0.078857
47413		13.299880	1.648160	-0.784681	0.771022	2.488815	0.573550	-1.481934	0.315186	-0.119873
47414		12.625358	0.389738	-1.288984	0.860953	2.661024	0.567788	-1.475098	0.317627	-0.167480
47415		10.775025	-0.634992	-0.478082	0.643845	2.664814	0.527575	-1.472656	0.319824	-0.204102
47416		9.687552	-1.396680	-0.299837	0.419523	2.599046	0.422921	-1.457031	0.324463	-0.242920
47417		9.019381	-1.322734	-0.410610	0.360412	2.517621	0.294505	-1.447998	0.324463	-0.277344
47418		8.652931	-1.026040	-0.289650	0.444845	2.411697	0.191697	-1.432373	0.322510	-0.311523
47419		8.639381	-1.774151	-0.665081	0.615751	2.309838	0.093116	-1.425293	0.315918	-0.350098
47420		8.465697	-1.575913	-0.593181	0.888957	2.262523	0.008359	-1.416260	0.313721	-0.377930
47421		8.362055	-1.915624	-1.054758	1.089242	2.216904	-0.118139	-1.405029	0.307373	-0.412354
47422		7.462477	-1.421009	-1.804476	1.540134	2.049833	-0.038788	-1.393311	0.289551	-0.444092
47423		6.632555	-0.385777	-1.479964	1.802240	1.910101	-0.068226	-1.390625	0.280762	-0.473877
47424		6.159898	0.402456	-1.264762	1.799140	1.740010	-0.095412	-1.370605	0.274414	-0.508057
47425		5.950862	0.377384	-1.134497	1.631224	1.518603	-0.077137	-1.361328	0.263428	-0.524902
47426		5.642414	0.529282	-0.589125	1.517974	1.315773	-0.059574	-1.354248	0.247803	-0.545898
47427		5.371904	0.844264	0.523009	1.197865	1.120408	-0.094134	-1.356201	0.241211	-0.560791
47428		5.087614	0.687878	1.186434	0.791692	0.937653	-0.078958	-1.347168	0.236816	-0.575684
47429		4.743582	0.575185	1.660109	0.406489	0.709114	-0.029664	-1.340576	0.236816	-0.580078
47430		4.663195	0.121095	1.783861	0.074734	0.472749	0.037239	-1.342529	0.234619	-0.584229
47431		5.082276	-0.450748	1.684820	-0.132561	0.253921	0.141118	-1.340576	0.239014	-0.584473
47432		4.753645	0.016634	1.575016	-0.133037	0.140547	0.347633	-1.329834	0.248047	-0.588867
47433		3.453948	-0.697858	2.243196	-0.143241	-0.260830	0.310437	-1.336670	0.256836	-0.580566
47434		4.047612	-0.894745	1.505098	-0.058932	-0.524862	0.283577	-1.334473	0.252441	-0.573975
47435		3.630139	-0.661777	1.565262	0.011193	-0.690009	0.257705	-1.345703	0.261230	-0.565674
47436		3.521232	-0.608586	1.497362	0.077910	-0.982122	0.240366	-1.361328	0.272217	-0.548828
47437		3.636735	-0.601174	1.722139	0.128008	-1.271041	0.203452	-1.361328	0.267822	-0.531494
47438		4.128630	-0.718794	2.048758	0.148335	-1.513710	0.178228	-1.374756	0.272217	-0.512451
47439		4.762969	-1.210753	2.061512	0.280298	-1.727300	0.186115	-1.379395	0.276611	-0.495361
47440		5.711007	-1.624545	2.232113	0.570865	-1.908250	0.174544	-1.392822	0.276367	-0.469482
47441		7.579591	-1.698802	2.833484	0.963251	-2.007722	0.148941	-1.401855	0.280762	-0.437256
47442		9.764412	-1.389400	4.351419	1.281235	-1.961548	0.173668	-1.419434	0.278320	-0.420166
47443		12.086780	-0.962364	7.113022	1.492199	-1.698248	0.187122	-1.421631	0.273926	-0.402832
47444		14.441206	-0.494280	9.391058	1.551722	-1.286978	0.137212	-1.423828	0.273926	-0.392090
47445		15.559889	0.923560	12.057628	1.308306	-0.585905	0.050258	-1.426025	0.273926	-0.392090
47446		15.152426	2.225756	14.061750	1.104503	0.122708	-0.113437	-1.426025	0.273926	-0.407227
47447		14.160002	3.807324	14.695717	1.102924	0.249329	-0.167469	-1.427734	0.258545	-0.408936
47448		13.159127	3.674777	13.426619	0.148972	0.177851	-0.110588	-1.419189	0.265137	-0.409180
47449		12.013588	2.461813	10.449055	-0.515782	0.118874	-0.036027	-1.421143	0.260742	-0.408936
47450		10.890622	1.781315	7.610754	-0.556414	0.051437	0.105883	-1.430176	0.269531	-0.407227
47451		8.962678	1.591619	4.999482	-0.113944	0.074744	0.269230	-1.427979	0.271729	-0.411621
47452		6.746947	1.829362	2.903568	0.432922	-0.007408	0.377107	-1.426025	0.273926	-0.411621
47453		6.674265	2.049861	1.775195	0.816054	-0.224104	0.388881	-1.423828	0.280518	-0.411621
47454		9.106514	2.004281	0.545289	1.114353	-0.421546	0.316402	-1.426025	0.280518	-0.411621
47455		11.396549	2.921008	-0.137534	1.204580	-0.498924	0.192810	-1.428223	0.273926	-0.405029
47456		13.454432	3.136525	0.055372	1.238989	-0.423032	0.081913	-1.425781	0.267334	-0.409180
47457		15.193549	2.364197	1.583193	1.454586	-0.164429	0.017176	-1.427979	0.265137	-0.413574
47458		15.348411	1.114702	3.037423	1.578447	0.068073	-0.006536	-1.429688	0.251709	-0.419678
47459		13.117279	0.036207	3.751003	1.412510	0.233663	-0.045187	-1.425049	0.245117	-0.430176
47460		8.709948	2.389311	4.549352	0.922482	0.059227	0.043335	-1.429443	0.245117	-0.425781
47461		7.480951	3.202449	5.499070	0.092535	-0.277667	0.197244	-1.427246	0.240723	-0.423584
47462		7.148644	3.259132	4.125692	-0.784071	-0.487449	0.286088	-1.427490	0.251709	-0.417480
47463		7.209237	1.545717	-0.606134	-1.464279	-0.893899	0.268857	-1.436768	0.260498	-0.396240
47464		7.572319	0.350806	-3.104066	-1.713192	-1.187242	0.300109	-1.434814	0.269531	-0.374756
47465		7.976124	-1.681256	-5.240348	-1.789482	-1.546440	0.462863	-1.446533	0.284912	-0.347412
47466		8.262864	-4.626102	-5.548640	-1.129544	-2.019135	0.685963	-1.451416	0.298096	-0.311035
47467		8.545434	-6.525072	-3.325574	-0.490047	-2.299691	0.794217	-1.454346	0.313477	-0.279297
47468		9.056364	-7.353005	-1.977425	-0.554036	-2.247605	0.697547	-1.463623	0.320068	-0.240723
47469		9.931715	-7.065654	-2.642861	-0.626073	-2.034655	0.514174	-1.461670	0.326660	-0.217041
47470		10.543194	-5.087911	-2.378655	-0.375007	-1.731360	0.301708	-1.466553	0.331055	-0.191406
47471		10.602443	-3.381807	-1.535668	0.017009	-1.511338	0.127301	-1.468994	0.333008	-0.165527
47472		10.657467	-1.710967	-0.985661	0.445651	-1.354699	-0.001730	-1.473389	0.333008	-0.152588
47473		10.450174	-0.486447	-0.935431	0.743455	-1.323138	0.005603	-1.475586	0.330811	-0.126709
47474		9.945302	-0.159849	-0.914715	0.979086	-1.327316	0.062585	-1.475830	0.335205	-0.118164
47475		8.906599	0.602044	-0.020937	1.059851	-1.368261	0.126673	-1.482422	0.328613	-0.098633
47476		9.030767	1.152333	0.464526	0.840794	-1.502439	0.194157	-1.482666	0.333008	-0.079346
47477		8.650533	1.194684	0.974925	0.498194	-1.588531	0.289640	-1.478760	0.341797	-0.053711
47478		9.197394	1.860655	1.597600	-0.193128	-1.654637	0.283589	-1.479248	0.352783	-0.030273
47479		9.846608	1.024502	0.884091	-0.695188	-1.723992	0.307864	-1.475098	0.354980	-0.000244
47480		9.924365	0.456231	0.279960	-0.945950	-1.621357	0.285434	-1.479980	0.361572	0.029785
47481		9.341476	-0.267948	0.034779	-1.195717	-1.463223	0.211543	-1.477783	0.356934	0.049316
47482		9.264263	-0.754462	-0.449822	-1.364481	-1.344260	0.095112	-1.480469	0.363525	0.072998
47483		9.797654	-0.481596	-0.678228	-1.490807	-1.177419	0.001398	-1.478516	0.361328	0.101074
47484		9.574887	-0.779229	-0.386284	-1.549962	-1.115039	-0.018365	-1.478516	0.361328	0.124756
47485		9.963874	-1.953527	-1.073853	-1.216255	-1.089259	0.000116	-1.480957	0.361084	0.146240
47486		10.252920	-0.980081	-0.601988	-0.739617	-0.967690	0.074976	-1.479004	0.367920	0.156982
47487		10.388714	-1.357937	-0.505246	-0.457181	-0.990587	0.224433	-1.476807	0.363281	0.169922
47488		10.182676	-0.790594	0.219765	-0.197478	-0.902389	0.367639	-1.468506	0.374512	0.193604
47489		9.583267	-0.512687	1.396071	-0.177633	-0.839126	0.410146	-1.468750	0.378906	0.204102
47490		9.077214	-0.318737	2.168913	-0.383458	-0.761692	0.379233	-1.466797	0.381104	0.217041
47491		8.600532	-0.204719	2.459392	-0.764081	-0.700045	0.294614	-1.467041	0.385498	0.231934
47492		8.348159	-0.894594	2.151326	-1.205099	-0.670559	0.172814	-1.460693	0.392090	0.247070
47493		8.347857	-1.089189	1.904876	-1.471406	-0.692777	0.066338	-1.462891	0.380859	0.266602
47494		8.686753	-2.091262	0.792190	-1.652935	-0.785954	0.001303	-1.465088	0.383057	0.279541
47495		8.952682	-2.950452	-0.670456	-1.627180	-0.873409	-0.032419	-1.462891	0.376465	0.303467
47496		9.304670	-3.589320	-2.077759	-1.484342	-0.994963	-0.065016	-1.462891	0.365234	0.323242
47497		9.797270	-3.927103	-3.275037	-1.224597	-1.068815	-0.060572	-1.456787	0.371826	0.348877
47498		9.834303	-3.526196	-3.756167	-0.836395	-1.060962	-0.022512	-1.454590	0.367432	0.362061
47499		9.754320	-2.311439	-3.205367	-0.492381	-1.035344	0.006767	-1.443848	0.371826	0.383545
47500		9.628004	-1.148622	-2.486139	-0.209224	-1.012501	0.073453	-1.450684	0.376221	0.396484
47501		9.313171	0.130688	-1.331672	-0.200768	-1.016448	0.128240	-1.439697	0.367432	0.414063
47502		9.274886	0.897669	-0.540861	-0.404960	-1.035043	0.131483	-1.439941	0.374023	0.433105
47503		9.179991	1.518136	0.144159	-0.660483	-0.986151	0.106360	-1.431396	0.371826	0.448486
47504		9.294751	1.911570	0.182349	-1.022083	-0.985672	0.046200	-1.431396	0.373779	0.465576
47505		9.908972	1.769911	-0.173231	-1.374304	-0.920382	0.022738	-1.427246	0.369385	0.485352
47506		10.255149	1.460834	-0.560699	-1.606714	-0.820565	0.003926	-1.422607	0.360596	0.502686
47507		10.327981	0.823673	-0.725266	-1.717833	-0.739436	-0.019672	-1.420410	0.351563	0.522461
47508		10.203829	-0.045983	-0.713433	-1.739912	-0.674940	-0.037971	-1.413818	0.347168	0.537842
47509		9.958846	-1.074531	-0.826028	-1.742584	-0.629275	-0.055682	-1.415771	0.331543	0.551025
47510		9.924435	-2.310641	-1.175916	-1.688077	-0.631975	-0.100779	-1.413574	0.322754	0.568604
47511		10.292541	-3.655420	-1.664805	-1.600049	-0.684181	-0.161821	-1.408936	0.309326	0.579834
47512		10.851537	-4.618131	-1.910324	-1.398840	-0.699941	-0.203532	-1.408691	0.298340	0.601807
47513		10.721103	-4.537578	-1.556381	-1.106013	-0.686325	-0.214389	-1.404297	0.293945	0.610596
47514		10.318314	-3.767574	-1.028865	-0.880879	-0.664439	-0.199747	-1.406494	0.287109	0.623535
47515		10.143549	-2.828425	-0.704938	-0.797756	-0.540079	-0.187023	-1.399658	0.276123	0.636963
47516		10.023259	-2.157359	-0.504199	-0.841250	-0.345349	-0.190854	-1.397461	0.273926	0.643555
47517		10.206239	-1.702236	-0.189240	-0.847092	-0.179564	-0.173352	-1.395020	0.262695	0.637451
47518		10.456665	-1.398936	0.337890	-0.762593	-0.091042	-0.124080	-1.392822	0.262695	0.648193
47519		10.871747	-1.223440	0.704090	-0.681601	-0.064811	-0.094119	-1.399414	0.258301	0.654785
47520		11.718045	-1.758982	0.053775	-0.744290	-0.007582	-0.075213	-1.392578	0.251709	0.650635
47521		12.893603	-2.892590	-0.638324	-0.765324	0.096319	-0.050585	-1.396973	0.245117	0.652832
47522		13.508645	-3.486574	-0.656380	-0.493009	0.192531	0.003628	-1.401123	0.240479	0.648682
47523		13.303382	-2.410776	-0.324207	-0.138818	0.244771	0.043933	-1.398926	0.245117	0.648682
47524		13.279447	-0.861587	-0.044069	0.222318	0.369085	0.021476	-1.405518	0.242920	0.633545
47525		13.801123	0.091950	0.552745	0.566181	0.630484	-0.044566	-1.412109	0.249512	0.626709
47526		13.988737	0.430923	1.657212	0.842986	0.993295	-0.098196	-1.414063	0.249512	0.603027
47527		13.527038	0.819907	2.579218	0.930671	1.456656	-0.106455	-1.422852	0.256104	0.579102
47528		12.799265	0.354224	1.467332	0.402177	1.870142	-0.110301	-1.428955	0.251709	0.553223
47529		12.204419	-0.217828	1.011096	0.075811	2.462362	-0.182070	-1.446045	0.249756	0.501221
47530		11.570099	0.193029	-0.069897	-0.039430	2.782582	-0.206314	-1.458984	0.251953	0.470947
47531		11.057130	-0.356494	-1.478329	-0.083922	2.755407	-0.155928	-1.462891	0.245361	0.434326
47532		11.805556	-0.464115	-2.033930	0.145215	2.624009	-0.031804	-1.479736	0.238770	0.386963
47533		12.391878	-0.199745	-2.530804	0.275275	2.525690	0.074975	-1.486084	0.240967	0.347900
47534		12.700631	-0.306189	-2.939099	0.355818	2.451938	0.211949	-1.492676	0.252197	0.315186
47535		12.862616	-0.842069	-2.941529	0.592261	2.329131	0.340052	-1.499023	0.256592	0.276367
47536		12.685590	-0.423893	-2.489917	0.813702	2.247160	0.419030	-1.503174	0.261230	0.237305
47537		12.430923	0.259194	-1.955178	1.057583	2.261968	0.419329	-1.496338	0.268066	0.194092
47538		11.747308	0.970736	-1.609818	1.164869	2.299034	0.371993	-1.504883	0.268066	0.155029
47539		11.126268	1.756905	-1.195792	1.151034	2.299922	0.319049	-1.502441	0.272461	0.122559
47540		10.970817	1.591899	-0.888605	0.986211	2.270632	0.295531	-1.500000	0.279297	0.079346
47541		11.483450	2.489797	-0.459088	0.771258	2.270993	0.337774	-1.502197	0.286133	0.044678
47542		10.609577	1.716387	-0.512595	0.465352	2.288120	0.326581	-1.497559	0.286133	0.008057
47543		11.065547	2.030631	-0.461409	0.407265	2.216148	0.307072	-1.495117	0.290527	-0.024414
47544		11.175883	1.631004	-0.377175	0.204434	2.252474	0.236037	-1.490479	0.290771	-0.065430
47545		11.914497	0.115378	-1.836064	0.411938	2.252819	0.284414	-1.483398	0.284180	-0.099609
47546		11.415330	0.043601	-1.592411	0.696277	2.412284	0.250312	-1.481201	0.288574	-0.134277
47547		10.220855	-0.596051	-1.433375	0.907677	2.481844	0.195977	-1.474121	0.288818	-0.173096
47548		9.253938	-0.474917	-0.576396	0.870216	2.384251	0.044654	-1.464844	0.275635	-0.211426
47549		9.421661	-1.056229	-0.587273	0.835092	2.243755	-0.059524	-1.455811	0.275635	-0.245850
47550		9.707475	-0.963570	-0.820091	1.050289	2.232959	-0.161644	-1.453125	0.273682	-0.284668
47551		8.972609	-0.340526	-0.717654	1.152843	2.281253	-0.190609	-1.437500	0.264893	-0.316406
47552		8.659632	0.066617	-0.274487	1.066112	2.161678	-0.234039	-1.432373	0.247314	-0.346191
47553		8.967419	-0.474110	-0.672821	0.963650	2.029332	-0.218975	-1.416748	0.245117	-0.371826
47554		8.534844	-0.809334	-0.673552	1.121907	1.939061	-0.162020	-1.411865	0.236328	-0.406006
47555		8.054430	-0.363092	-0.368499	1.350207	1.826585	-0.177707	-1.400391	0.227539	-0.433838
47556		7.565471	0.611160	0.123995	1.342198	1.716854	-0.177673	-1.395752	0.220947	-0.457275
47557		5.904437	2.007726	1.846881	0.895537	1.454754	-0.144994	-1.388672	0.212158	-0.480713
47558		8.041769	-0.832351	-0.677776	0.759843	1.158958	-0.135836	-1.384033	0.203369	-0.497559
47559		6.986061	0.326629	0.477045	0.780449	1.282228	-0.095545	-1.372803	0.198975	-0.514648
47560		6.159802	0.451937	1.475151	0.245048	1.015399	-0.061373	-1.370605	0.198975	-0.523193
47561		6.114269	0.293907	1.345201	0.023304	0.742292	0.010161	-1.364014	0.198975	-0.527344
47562		5.825242	0.159083	1.383835	-0.049173	0.579267	0.067375	-1.357422	0.198975	-0.533936
47563		5.387942	-0.035158	1.441853	0.018310	0.413266	0.120991	-1.357422	0.203613	-0.540527
47564		5.125860	-0.025594	1.658671	0.068674	0.244193	0.164359	-1.355225	0.201416	-0.546875
47565		5.020284	-0.055958	1.554222	0.056702	0.097780	0.207607	-1.357422	0.205811	-0.544922
47566		5.093930	0.047590	1.414226	0.022176	-0.020985	0.244677	-1.357666	0.208008	-0.542725
47567		5.027694	0.183570	1.179869	-0.046089	-0.140012	0.272546	-1.357666	0.212402	-0.538574
47568		4.887603	0.317842	1.250148	-0.100142	-0.333738	0.276965	-1.355713	0.221191	-0.532227
47569		4.694176	0.237188	1.636777	-0.076185	-0.563148	0.274703	-1.366943	0.223389	-0.519531
47570		4.715720	0.062953	2.328623	0.040494	-0.803474	0.265787	-1.373779	0.232178	-0.513428
47571		4.892956	-0.239535	2.813856	0.181749	-1.030927	0.273060	-1.380615	0.236572	-0.502686
47572		5.586941	-0.723838	3.113490	0.275289	-1.222331	0.296692	-1.387207	0.236572	-0.481201
47573		6.653000	-1.021320	3.356758	0.362193	-1.352270	0.309408	-1.394287	0.245361	-0.464355
47574		7.788022	-1.106768	4.058431	0.383418	-1.403485	0.296708	-1.400879	0.249756	-0.447266
47575		8.704516	-0.883845	5.070098	0.311187	-1.370887	0.302161	-1.409912	0.254150	-0.430176
47576		9.437670	-0.602162	6.369483	0.167013	-1.305444	0.308762	-1.408203	0.258545	-0.408691
47577		10.266336	-1.004779	7.626389	0.203916	-1.177633	0.265798	-1.416992	0.265137	-0.402588
47578		10.882603	-0.828861	8.468566	0.518308	-0.973878	0.164419	-1.423828	0.269531	-0.389893
47579		11.791862	0.243168	9.486523	0.690364	-0.718052	0.082345	-1.430420	0.269531	-0.383545
47580		11.748439	1.756960	11.066642	0.652678	-0.378604	0.000972	-1.423828	0.262939	-0.383057
47581		11.140489	2.405821	12.152790	0.327501	-0.275247	-0.077621	-1.432617	0.262695	-0.376709
47582		11.761842	2.124218	11.264152	0.022055	-0.550581	-0.090203	-1.432617	0.264893	-0.372559
47583		12.663053	1.742659	8.841580	-0.091803	-0.544784	-0.029364	-1.432617	0.260498	-0.365967
47584		12.287370	1.658434	6.769589	0.007243	-0.372134	0.109024	-1.430420	0.264893	-0.357422
47585		11.008630	1.483046	4.746955	0.251187	-0.107477	0.281893	-1.432861	0.271729	-0.364014
47586		8.852004	1.259445	2.971099	0.724636	0.136294	0.421642	-1.430664	0.269531	-0.368408
47587		6.966780	1.665407	1.338731	1.212869	0.245778	0.430213	-1.428467	0.271729	-0.376953
47588		7.483453	1.729541	0.912707	1.628658	0.105460	0.354693	-1.428467	0.276123	-0.383545
47589		9.785934	2.296440	0.624641	1.748291	-0.166700	0.272447	-1.428223	0.267334	-0.387695
47590		11.969427	2.953371	0.903601	1.380338	-0.374404	0.177456	-1.430420	0.267334	-0.383301
47591		14.617528	2.806742	2.140149	0.930779	-0.512131	0.089996	-1.432373	0.260498	-0.381104
47592		15.837062	2.336230	3.964932	0.617565	-0.537546	0.069476	-1.436768	0.258301	-0.374512
47593		16.098527	1.204496	4.429619	0.340708	-0.721224	0.099117	-1.443604	0.260498	-0.359619
47594		15.870996	1.377260	4.086614	0.225567	-0.844250	0.107060	-1.441406	0.258301	-0.353027
47595		13.133015	2.682603	5.650684	0.580487	-0.192582	0.035655	-1.441162	0.260498	-0.365967
47596		9.099641	4.741768	6.013874	0.689084	0.348786	0.010076	-1.443115	0.251709	-0.365723
47597		7.519204	3.820080	2.117187	-0.233442	0.237976	0.089014	-1.434570	0.256104	-0.367920
47598		6.552269	0.990103	-2.128513	-1.163765	0.054090	0.268298	-1.439209	0.264893	-0.361816
47599		4.884410	-1.586524	-4.818638	-1.491596	-0.235733	0.461229	-1.443848	0.273682	-0.359863
47600		4.100762	-3.733608	-7.266799	-1.492347	-0.609574	0.606259	-1.444336	0.284912	-0.343018
47601		3.883470	-5.469870	-8.202786	-0.798122	-1.289212	0.786479	-1.447021	0.295898	-0.319580
47602		5.964591	-6.316188	-5.441067	-0.108901	-2.153296	0.852373	-1.452148	0.313477	-0.281250
47603		9.308728	-6.260735	-1.264210	-0.041436	-2.355983	0.728176	-1.452637	0.324463	-0.253662
47604		11.944297	-5.106757	1.339169	-0.477294	-1.887538	0.451042	-1.461670	0.324463	-0.223389
47605		13.323031	-3.942596	1.323898	-0.811235	-1.424174	0.143222	-1.468506	0.328857	-0.210693
47606		13.775869	-3.058732	1.152268	-0.774942	-1.041822	-0.073261	-1.466553	0.331055	-0.187012
47607		12.669113	-1.943114	1.349821	-0.339982	-0.751083	-0.124394	-1.473145	0.330811	-0.174072
47608		11.410331	-0.705667	0.817587	0.205844	-0.745473	-0.041027	-1.470947	0.326416	-0.158936
47609		10.209434	0.373388	0.420034	0.531860	-0.843163	0.070761	-1.473145	0.326416	-0.156738
47610		8.276457	1.594780	1.066835	0.678086	-0.867602	0.056550	-1.475586	0.333008	-0.141846
47611		7.700967	1.561351	1.086395	0.428360	-1.103034	0.204888	-1.476074	0.339600	-0.122803
47612		7.555143	1.914302	1.636427	0.096297	-1.282710	0.306822	-1.478271	0.339600	-0.103271
47613		7.846274	1.105924	1.860573	-0.317466	-1.475658	0.380556	-1.478760	0.346191	-0.083984
47614		8.497863	0.164222	1.987055	-0.840314	-1.590409	0.371681	-1.483398	0.350586	-0.060547
47615		9.267561	-1.369362	1.216663	-1.280725	-1.587654	0.315843	-1.479492	0.357178	-0.032715
47616		9.593553	-2.072249	0.497685	-1.599232	-1.455611	0.203508	-1.484131	0.361572	-0.002686
47617		9.887170	-2.981401	-0.600434	-1.747899	-1.238063	0.023559	-1.482178	0.361572	0.025391
47618		10.249563	-2.569251	-1.070813	-1.600792	-1.026914	-0.023450	-1.484375	0.356934	0.049316
47619		9.925880	-1.856072	-1.141905	-1.210080	-0.872086	-0.053356	-1.482422	0.363525	0.064209
47620		9.154646	-1.007572	-0.488816	-0.828798	-0.731002	-0.096060	-1.486816	0.356934	0.077393
47621		9.464993	-1.056538	-0.733487	-0.500119	-0.807625	-0.033572	-1.480225	0.352539	0.088379
47622		9.155815	-1.173604	-0.789428	-0.218342	-0.885201	0.076462	-1.487061	0.359131	0.111816
47623		9.205178	-1.043336	-0.559827	-0.076327	-1.041591	0.165307	-1.483154	0.370117	0.126709
47624		9.102851	-1.203179	-0.628454	-0.032582	-1.129318	0.239757	-1.479004	0.372314	0.141602
47625		9.019739	-0.386587	0.105784	0.033527	-1.207076	0.237343	-1.483643	0.376709	0.163086
47626		9.326700	-0.148514	0.104645	-0.095445	-1.237811	0.203403	-1.472900	0.374512	0.178467
47627		9.432988	0.072248	0.222664	-0.328025	-1.176084	0.128430	-1.484131	0.378906	0.199707
47628		9.619523	-0.261008	-0.003055	-0.621591	-1.109910	0.045611	-1.473145	0.376465	0.212891
47629		9.518185	-0.452691	-0.223879	-0.763042	-1.053585	-0.010613	-1.467041	0.383301	0.236328
47630		9.431573	-0.631308	-0.231379	-0.878197	-1.024860	-0.028576	-1.467041	0.376465	0.258057
47631		9.274101	-0.935211	-0.136047	-0.960452	-1.019426	-0.028048	-1.469238	0.372070	0.273438
47632		9.076892	-1.171599	0.012393	-1.033693	-1.045905	-0.020721	-1.467285	0.374268	0.297119
47633		8.948919	-1.471610	0.010420	-1.088575	-1.069619	-0.025636	-1.465088	0.367432	0.316650
47634		9.176353	-1.479885	-0.338505	-1.110418	-1.078406	-0.032554	-1.463135	0.371826	0.335938
47635		9.441362	-1.487994	-1.296511	-1.066252	-1.014715	-0.036966	-1.462891	0.360840	0.351318
47636		9.530220	-0.610875	-2.134816	-0.980160	-0.942665	-0.034467	-1.456543	0.360840	0.377441
47637		9.731671	-0.697026	-2.462190	-0.928041	-0.908576	-0.023864	-1.456543	0.356201	0.392578
47638		9.832335	-1.278493	-1.832657	-0.888668	-0.936549	-0.015361	-1.456787	0.354004	0.407715
47639		9.786473	-1.690714	-0.344346	-0.856104	-0.949303	-0.016131	-1.448242	0.356201	0.429199
47640		9.710049	-1.832332	0.387524	-1.067084	-0.993284	-0.022800	-1.443848	0.351807	0.448975
47641		9.812278	-1.764668	-0.365742	-1.447146	-1.051160	-0.039714	-1.441650	0.342773	0.468506
47642		10.046592	-1.499513	-1.314727	-1.725031	-1.044299	-0.061902	-1.439453	0.336182	0.492432
47643		10.093420	-1.115691	-1.853149	-1.730351	-1.020924	-0.108230	-1.435059	0.327148	0.514404
47644		10.400701	-0.869639	-1.667396	-1.484087	-0.972123	-0.142069	-1.432617	0.316162	0.529785
47645		10.428587	-0.810992	-0.878168	-1.250999	-0.887098	-0.157411	-1.421875	0.311768	0.545166
47646		10.439874	-1.005582	-0.269964	-1.196061	-0.776232	-0.169579	-1.423828	0.302734	0.560547
47647		10.520581	-1.299125	-0.097370	-1.293590	-0.645565	-0.179921	-1.421631	0.293945	0.580078
47648		10.601051	-1.744395	-0.118520	-1.481294	-0.494629	-0.187622	-1.419189	0.284912	0.586914
47649		10.633986	-2.222181	-0.503682	-1.631369	-0.358824	-0.204865	-1.416748	0.269531	0.598145
47650		10.546591	-2.391372	-0.769533	-1.618369	-0.258325	-0.209177	-1.416504	0.256104	0.600586
47651		10.427541	-2.230259	-0.665818	-1.504457	-0.213538	-0.205348	-1.411865	0.245117	0.611816
47652		10.740506	-2.109791	-0.379135	-1.423884	-0.192488	-0.189539	-1.420410	0.238281	0.620605
47653		10.878340	-2.040246	0.106167	-1.363874	-0.137199	-0.173744	-1.415771	0.225098	0.633789
47654		10.955647	-2.555301	0.338225	-1.300324	-0.055043	-0.180949	-1.415527	0.216309	0.629883
47655		11.781799	-3.381993	0.187151	-1.174163	0.058001	-0.177533	-1.415283	0.205078	0.630127
47656		12.738781	-4.386251	0.027350	-0.903037	0.145997	-0.134717	-1.417480	0.207275	0.625732
47657		13.000397	-4.443492	0.097032	-0.567886	0.188309	-0.098434	-1.421631	0.202881	0.623535
47658		13.418192	-3.814381	0.251178	-0.275139	0.250112	-0.087174	-1.417236	0.198486	0.621582
47659		13.806377	-2.747101	0.850213	0.020138	0.409269	-0.085996	-1.423584	0.194092	0.613037
47660		14.050265	-1.617655	1.629317	0.217876	0.564322	-0.090952	-1.423584	0.198486	0.602295
47661		14.157982	-0.770859	1.873586	0.332102	0.805073	-0.106186	-1.427979	0.196289	0.591309
47662		14.120402	-0.239187	2.119033	0.585138	1.185392	-0.141868	-1.434326	0.196289	0.569824
47663		13.638927	0.272205	3.024685	0.989935	1.649493	-0.155924	-1.440674	0.203125	0.539307
47664		12.556675	0.809752	2.850414	0.748661	2.087388	-0.100641	-1.455811	0.203125	0.504639
47665		11.678001	1.074249	2.366771	0.238034	2.621131	-0.122586	-1.466064	0.196533	0.461670
47666		10.508691	1.659617	2.065127	-0.081220	2.957084	-0.114378	-1.483154	0.196533	0.418213
47667		9.772769	1.560701	0.505679	-0.541037	2.998542	-0.088635	-1.493652	0.189941	0.370850
47668		9.963193	2.531044	0.052160	-0.599824	2.995666	0.001726	-1.499756	0.187744	0.327881
47669		10.969123	1.559641	-0.808693	-0.780840	2.912597	0.068148	-1.510254	0.183594	0.282471
47670		11.544340	0.349754	-1.833145	-0.910822	2.778413	0.192795	-1.514160	0.181396	0.250244
47671		11.694628	-0.095759	-2.622727	-0.767270	2.583251	0.343326	-1.518311	0.183594	0.211182
47672		12.102108	0.361770	-2.560715	-0.563846	2.389291	0.472010	-1.524658	0.190430	0.167725
47673		12.392525	0.335913	-2.192936	-0.287073	2.255042	0.585867	-1.518066	0.194824	0.139648
47674		12.520365	0.347450	-1.523016	0.150949	2.216302	0.689251	-1.520264	0.208252	0.104736
47675		11.862850	-0.298322	-1.510247	0.633255	2.190820	0.728917	-1.515869	0.217285	0.067871
47676		11.491666	0.199010	-1.176127	1.114926	2.222109	0.739296	-1.506836	0.223877	0.026855
47677		11.953912	-0.062774	-0.825248	1.347229	2.180024	0.724749	-1.504639	0.232910	-0.012207
47678		12.642521	-0.022913	-0.845911	1.441623	2.166068	0.774831	-1.504639	0.241943	-0.049072
47679		11.550135	0.082323	-0.854502	1.474926	2.250940	0.773427	-1.502441	0.253174	-0.083984
47680		11.496737	0.572711	-0.487272	1.528906	2.182035	0.744154	-1.489014	0.257568	-0.122803
47681		11.377752	0.462659	-0.573998	1.484751	2.198430	0.691501	-1.480225	0.264404	-0.163818
47682		10.293582	0.885835	-0.139056	1.336124	2.297215	0.629971	-1.473389	0.268799	-0.198242
47683		9.307453	0.810463	0.876199	1.021900	2.239256	0.525868	-1.458008	0.273438	-0.230713
47684		9.289786	-0.840132	0.382309	0.949260	2.097416	0.451453	-1.453369	0.275879	-0.262939
47685		9.238954	-0.760416	0.087957	1.090821	2.037373	0.320696	-1.444336	0.273682	-0.299561
47686		8.809231	-0.244309	-0.077048	1.393871	1.993551	0.262502	-1.433105	0.273682	-0.331787
47687		8.705884	-0.416450	-0.214917	1.535314	1.857834	0.240229	-1.428467	0.271484	-0.353271
47688		8.454247	-1.149793	-0.757398	1.893065	1.797878	0.201667	-1.412598	0.262939	-0.391602
47689		8.136933	-0.683582	-0.292002	2.204555	1.726053	0.139264	-1.410156	0.254150	-0.417236
47690		7.604401	-0.215317	-0.007503	2.280649	1.634674	0.080692	-1.396484	0.243164	-0.444824
47691		7.378882	0.665029	0.170732	2.225174	1.521200	0.054742	-1.385010	0.232178	-0.468262
47692		6.951130	1.423120	0.550441	1.970478	1.397800	0.085916	-1.378174	0.225586	-0.489502
47693		6.905886	1.688156	0.809925	1.626869	1.260015	0.126541	-1.368896	0.214600	-0.517090
47694		6.814634	1.586424	1.014865	1.283330	1.137768	0.163881	-1.357910	0.214600	-0.527832
47695		6.498799	1.292920	1.346848	0.976945	1.068101	0.198743	-1.349121	0.214600	-0.542725
47696		6.190011	0.935935	1.695819	0.718926	0.955408	0.229490	-1.348633	0.205811	-0.553467
47697		5.889881	0.606398	2.001219	0.533811	0.831874	0.279896	-1.342285	0.214600	-0.572998
47698		5.550221	0.351606	2.213573	0.391662	0.683894	0.329771	-1.335449	0.212646	-0.577148
47699		5.173400	0.485097	2.554470	0.295927	0.506133	0.376488	-1.333496	0.217041	-0.583740
47700		5.166978	0.635057	2.564779	0.241405	0.277183	0.415668	-1.333496	0.221436	-0.581787
47701		5.182883	0.885677	1.981390	0.291781	0.100136	0.437874	-1.333740	0.225830	-0.588379
47702		5.293085	0.909257	1.391749	0.381123	-0.028890	0.446392	-1.329346	0.230225	-0.583984
47703		5.252290	0.600618	1.256855	0.496583	-0.129954	0.432444	-1.333740	0.232422	-0.592773
47704		5.306573	0.222808	1.981242	0.605617	-0.267435	0.398133	-1.336182	0.234619	-0.582031
47705		5.611401	0.120025	2.916038	0.630988	-0.414953	0.372166	-1.338379	0.234619	-0.575684
47706		6.066177	0.280788	3.664169	0.528156	-0.552229	0.366583	-1.340576	0.241211	-0.575928
47707		6.399817	0.648873	3.959635	0.333572	-0.692739	0.384061	-1.347656	0.250244	-0.561035
47708		6.927587	0.631869	3.944858	0.222863	-0.819824	0.404744	-1.354248	0.250000	-0.556885
47709		7.378356	0.303657	4.479615	0.350242	-0.869709	0.408762	-1.356689	0.256836	-0.546143
47710		7.480134	0.239389	5.487803	0.592947	-0.864989	0.386839	-1.361084	0.258789	-0.535645
47711		7.986138	0.050716	6.539990	0.657924	-0.931335	0.335250	-1.372070	0.258789	-0.522705
47712		8.650891	-0.258553	7.071370	0.637963	-0.951183	0.268737	-1.372314	0.263184	-0.520752
47713		9.032549	-0.273290	7.819551	0.736629	-0.795557	0.241534	-1.376953	0.265381	-0.503662
47714		8.980209	0.252643	8.587152	0.944433	-0.619036	0.254121	-1.385742	0.269775	-0.508057
47715		9.152599	0.709688	8.678588	0.904062	-0.567890	0.228160	-1.387695	0.263184	-0.501465
47716		10.113540	1.075226	8.707949	0.782158	-0.505048	0.199975	-1.394531	0.269775	-0.499512
47717		10.858847	1.327871	9.273002	0.737395	-0.361534	0.143083	-1.392334	0.269775	-0.501709
47718		11.600470	1.437093	9.043045	0.708299	-0.311798	0.049578	-1.394287	0.260986	-0.494873
47719		12.529993	1.379073	8.440792	0.692867	-0.277516	-0.018031	-1.400879	0.263184	-0.499512
47720		12.371040	1.109206	7.216926	0.717623	-0.154790	-0.033235	-1.398682	0.258789	-0.499268
47721		11.291378	1.732941	7.077278	0.651195	-0.031463	0.004998	-1.402832	0.254395	-0.501465
47722		9.475544	1.563049	6.590102	0.660445	-0.007284	0.085516	-1.402588	0.247559	-0.507568
47723		7.527085	1.699315	5.711419	0.743815	-0.056274	0.141376	-1.400391	0.247559	-0.507568
47724		6.216106	2.376775	3.538736	0.848741	-0.157449	0.180813	-1.400146	0.240967	-0.511719
47725		6.651000	2.967679	2.196047	0.994807	-0.189023	0.192956	-1.404541	0.243164	-0.511963
47726		8.431102	3.833559	1.498455	0.942755	-0.254738	0.175963	-1.406738	0.238770	-0.507324
47727		10.741967	4.538014	0.866715	0.540582	-0.370834	0.150048	-1.406738	0.240967	-0.507568
47728		13.868792	3.806780	2.240047	0.606920	-0.425611	0.114182	-1.413330	0.236572	-0.509521
47729		16.452210	3.091742	5.856121	0.679306	-0.274927	0.014759	-1.415527	0.238770	-0.509766
47730		17.352937	1.310744	6.355206	0.153727	-0.177312	-0.099908	-1.417236	0.225342	-0.513672
47731		16.566227	-0.146466	4.579204	-0.209928	-0.039475	-0.034882	-1.413086	0.227783	-0.511475
47732		11.863143	0.271335	4.980214	0.257940	0.066005	0.148693	-1.410645	0.227783	-0.515869
47733		7.225389	1.303337	3.902627	0.104677	-0.055148	0.134742	-1.417480	0.229980	-0.509521
47734		6.254313	0.492233	-0.004870	-1.169011	-0.294914	0.023311	-1.424072	0.232178	-0.498779
47735		5.975424	-1.441848	-3.779242	-1.960157	-0.615714	0.010071	-1.422363	0.243164	-0.483887
47736		6.602368	-4.417680	-4.473777	-1.559766	-1.275066	0.216175	-1.424805	0.245361	-0.468994
47737		8.107423	-6.808522	-2.300897	-0.899049	-1.722922	0.585516	-1.438721	0.265137	-0.435059
47738		9.172549	-7.048391	0.305530	-0.805489	-1.706309	0.861773	-1.443604	0.278320	-0.414063
47739		9.614714	-5.461360	-0.042513	-1.196505	-1.538747	0.872748	-1.448486	0.291504	-0.388428
47740		10.372627	-4.018156	-0.880761	-1.228703	-1.482088	0.750998	-1.449219	0.311523	-0.358887
47741		11.280048	-2.304666	-0.205051	-0.918214	-1.426701	0.547352	-1.456055	0.315918	-0.335449
47742		11.761044	-0.599314	0.539469	-0.811897	-1.318916	0.378222	-1.465332	0.324707	-0.316406
47743		11.399293	-0.036202	0.552875	-0.903990	-1.191822	0.182521	-1.465576	0.331299	-0.299316
47744		10.635561	0.035133	0.250568	-0.882583	-1.165855	0.020626	-1.472168	0.326660	-0.271240
47745		9.680337	-0.144685	0.293534	-0.685845	-1.277567	-0.036396	-1.476807	0.335449	-0.258545
47746		9.090944	0.221067	0.558700	-0.568606	-1.455647	0.010948	-1.477051	0.333252	-0.232422
47747		7.871621	0.563342	1.247992	-0.692003	-1.583760	0.092763	-1.484131	0.339844	-0.200439
47748		7.796147	-0.603758	0.991333	-0.940185	-1.800090	0.173386	-1.490967	0.342041	-0.170410
47749		8.024964	-1.311315	0.408306	-1.029316	-1.906078	0.263249	-1.484863	0.350830	-0.140381
47750		8.206546	-1.447765	-0.066585	-1.100400	-1.894324	0.273560	-1.489502	0.350586	-0.101563
47751		8.626849	-1.390646	-0.391714	-1.121810	-1.828601	0.218119	-1.496582	0.357178	-0.071533
47752		8.613689	-1.263448	-0.586232	-1.099112	-1.630679	0.132179	-1.494629	0.357178	-0.050049
47753		8.813532	-1.640338	-0.680212	-1.089283	-1.493316	-0.021369	-1.494629	0.354980	-0.026123
47754		9.816635	-1.402179	-0.515477	-1.038286	-1.389585	-0.125833	-1.497314	0.359131	0.003906
47755		10.004190	-1.625886	-0.232658	-0.853760	-1.225292	-0.188062	-1.499512	0.354736	0.019043
