// General information: 
//  MT Manager version: 2021.0.0 
//  XDA version: 2021.0.0 build 5908 rev 109668 built on 2021-04-19
// Device information: 
//  DeviceId: 00B44090
//  ProductCode: MTW2-3A7G6
//  Firmware Version: 4.4.0
//  Hardware Version: 1.1.0
// Device settings: 
//  Filter Profile: human(46.1)
//  Option Flags: Orientation Smoother Disabled, Position/Velocity Smoother Disabled, Continuous Zero Rotation Update Disabled, AHS Disabled, ICC Disabled
// Coordinate system: ENU
PacketCounter	SampleTimeFine	Acc_X	Acc_Y	Acc_Z	Gyr_X	Gyr_Y	Gyr_Z	Mag_X	Mag_Y	Mag_Z
24843		1.326416	3.874470	9.142584	1.618599	-1.705256	1.821519	-1.136963	0.863525	0.647461
24844		3.615721	9.140381	8.994226	1.869782	-2.194693	2.258425	-1.098389	0.900879	0.663574
24845		6.168302	12.569457	8.760310	1.404765	-2.595770	2.582492	-1.055420	0.931885	0.679688
24846		7.309273	13.712869	8.009011	0.668768	-2.953005	2.890020	-1.007813	0.967041	0.706299
24847		7.890302	14.141887	7.368111	0.017843	-3.335629	3.147887	-0.942627	1.002441	0.741455
24848		8.935922	14.202824	7.229136	-0.468909	-3.755402	3.305123	-0.881592	1.028809	0.785400
24849		10.629776	14.463559	7.083608	-0.960527	-4.104811	3.371031	-0.815918	1.053223	0.842285
24850		12.468967	13.606195	5.700887	-1.788651	-4.257356	3.389416	-0.745605	1.064453	0.893066
24851		12.989802	11.162521	3.500125	-2.824871	-4.162243	3.360937	-0.670410	1.073242	0.965088
24852		12.484330	7.622693	1.588706	-3.720991	-4.049328	3.150673	-0.594727	1.064453	1.041992
24853		12.411472	3.774702	0.208427	-4.433178	-4.036000	2.839547	-0.522949	1.038330	1.121582
24854		13.935211	0.238330	-2.149097	-5.286367	-4.040825	2.499406	-0.450684	1.000977	1.207764
24855		16.440872	-1.957996	-4.779713	-6.756553	-3.474756	2.223072	-0.392578	0.926025	1.310059
24856		18.347278	-4.979784	-9.036603	-8.791257	-2.649541	1.744441	-0.344727	0.831543	1.406250
24857		19.141829	-10.920129	-14.120599	-6.995922	-1.841333	1.149308	-0.304443	0.756836	1.474609
24858		15.678247	-11.807896	-14.371529	-4.495782	-1.504818	0.680943	-0.287109	0.712891	1.529053
24859		11.918153	-11.822266	-15.529739	-3.188481	-1.038499	-0.231164	-0.276855	0.675293	1.551514
24860		10.671209	-10.102252	-16.865415	-1.737711	-0.745897	-1.092718	-0.282959	0.659912	1.585693
24861		9.736287	-7.657894	-18.565449	-0.193183	-0.315282	-1.357490	-0.294434	0.670898	1.593750
24862		8.230981	-6.584539	-18.459049	0.967374	0.772268	-1.415554	-0.339111	0.690430	1.607666
24863		6.409738	-7.247171	-16.696367	1.677315	1.956585	-1.621070	-0.388916	0.721191	1.589600
24864		5.151963	-8.088977	-14.812618	2.048978	2.847871	-1.936648	-0.465088	0.751709	1.573242
24865		4.291893	-8.273687	-13.502471	1.682924	3.754227	-2.204555	-0.554443	0.775635	1.548828
24866		2.936892	-8.474724	-13.027934	1.208599	4.703433	-2.451676	-0.662842	0.781738	1.514160
24867		1.413547	-8.785201	-12.678715	1.370034	5.502144	-2.728035	-0.784912	0.792480	1.470703
24868		0.324415	-8.910984	-12.683778	2.263751	6.223078	-3.049032	-0.918213	0.807617	1.393311
24869		0.142519	-9.050000	-11.628158	3.410100	6.925217	-3.416481	-1.051514	0.822754	1.299072
24870		0.464257	-8.918854	-8.842914	4.301516	7.784881	-3.881597	-1.193848	0.837891	1.175049
24871		-0.627621	-7.634502	-6.074844	4.045396	8.360517	-4.343713	-1.333252	0.826660	1.032715
24872		-3.204641	-6.503876	-6.105405	2.174913	7.886109	-4.470248	-1.457764	0.773682	0.919434
24873		-3.342885	-7.075499	-6.258483	0.255106	7.453029	-5.023844	-1.563477	0.694580	0.809326
24874		-2.324016	-7.876162	-6.153600	-1.216113	7.330987	-5.572603	-1.659668	0.593262	0.697754
24875		-1.485389	-6.064571	-7.418307	-2.364790	7.166019	-5.861945	-1.748779	0.474609	0.588867
24876		2.259558	-5.455268	-9.414368	-2.308497	6.898285	-5.694268	-1.809570	0.371338	0.475342
24877		6.816915	-8.484730	-10.131752	-0.884373	6.503669	-5.141746	-1.864258	0.281250	0.359619
24878		12.325424	-12.926006	-7.823323	1.687223	6.169822	-4.759933	-1.895020	0.197998	0.237305
24879		18.122274	-16.966399	-5.916276	2.410743	5.475045	-4.246864	-1.904053	0.127686	0.133545
24880		17.955018	-15.367399	-5.718704	2.560237	4.499301	-2.755078	-1.911621	0.081787	0.041992
24881		9.009612	9.550513	-3.755664	1.920201	4.224696	-1.489732	-1.915527	0.060059	-0.033691
24882		3.722811	-3.051282	-1.243208	1.069920	2.685145	-2.012962	-1.909668	0.013916	-0.080811
24883		-0.507880	-6.599979	-6.072235	1.001588	2.123836	-1.835293	-1.913086	-0.016846	-0.117920
24884		-3.186886	-10.842158	-7.435589	1.987506	0.939969	-0.789311	-1.906006	-0.027588	-0.125977
24885		-3.515303	-13.567434	-7.630696	2.365926	-0.531278	0.613507	-1.917725	-0.008057	-0.105469
24886		-2.125809	-8.995390	-7.604476	1.821623	-1.514484	1.613189	-1.914551	0.029297	-0.072754
24887		-0.616630	-2.239870	-7.716493	1.098832	-2.150275	2.526709	-1.914063	0.086426	-0.025879
24888		2.118709	0.585825	-8.925544	0.830796	-2.689603	3.230766	-1.905518	0.163086	0.035156
24889		3.197291	-2.600000	-10.945197	0.707642	-2.765554	3.147906	-1.896484	0.226807	0.085938
24890		6.434088	-7.979113	2.458531	3.262218	-2.454021	2.956472	-1.889893	0.290527	0.128418
24891		14.190372	-6.233077	7.901241	5.239462	-3.258768	3.026124	-1.870117	0.365234	0.183350
24892		29.172248	3.832606	1.328140	0.765963	-3.634038	3.769118	-1.839844	0.453125	0.250488
24893		34.159301	-3.254825	-8.511011	-0.942281	-2.846711	4.973638	-1.807617	0.547607	0.298340
24894		15.353086	-3.266688	-11.426217	-1.322872	-1.272976	5.121039	-1.768066	0.626709	0.340576
24895		3.154098	-3.149977	-22.513367	-3.763939	-1.995031	4.994524	-1.721924	0.697021	0.404053
24896		-8.009664	-17.946133	-21.160004	1.294308	-2.478126	4.524447	-1.674072	0.782959	0.401611
24897		-10.292838	-22.934918	-4.144037	6.670115	-1.160494	2.537253	-1.631836	0.842529	0.397949
24898		6.596649	-20.165394	-3.779931	1.598151	-3.650437	2.615286	-1.584961	0.895264	0.459961
24899		15.316546	-12.783726	-7.418590	-1.934120	-2.685371	2.536656	-1.543701	0.919434	0.512207
24900		14.889780	-6.818294	-12.594638	-0.382476	-1.129444	1.540450	-1.511230	0.939453	0.522461
24901		8.971049	-8.358085	-7.187913	1.549735	-0.476868	1.729302	-1.472168	0.961426	0.519775
24902		7.708655	-19.144839	-5.508560	-0.737292	-1.268690	1.300631	-1.438965	0.966064	0.551514
24903		17.403832	-18.406802	-8.114962	-1.472847	-1.971183	0.712197	-1.400879	0.952881	0.594482
24904		21.901187	-11.227304	-9.354245	-0.928653	-0.847948	0.381398	-1.376465	0.948486	0.611816
24905		20.479198	-10.162056	-8.351234	-1.028195	-0.398948	0.461344	-1.353760	0.933105	0.620850
24906		20.158959	-13.524444	-7.042221	-0.931700	-0.341332	0.762341	-1.327148	0.928711	0.635986
24907		21.795655	-10.678026	-5.549321	-1.307883	-0.505808	0.244207	-1.301514	0.897949	0.647705
24908		24.984182	0.374146	-6.273547	-1.207840	-0.607278	-0.159237	-1.292236	0.882568	0.665039
24909		25.061424	11.949202	-4.335242	-0.642350	-0.456908	0.458995	-1.262939	0.867432	0.663574
24910		20.889411	12.086947	-2.717937	-1.230507	-0.326128	0.877035	-1.240234	0.849854	0.675049
24911		19.373085	6.706946	-1.160633	-1.482391	-0.171768	1.004196	-1.228760	0.841064	0.681641
24912		17.016565	5.657615	1.644314	-1.361069	0.032673	1.187212	-1.201904	0.827881	0.686523
24913		14.107673	6.853984	3.525445	-1.430042	0.420326	0.939422	-1.192627	0.817139	0.686768
24914		12.413320	5.335564	4.939468	-1.281095	0.678954	0.485210	-1.198975	0.803955	0.672363
24915		9.610333	4.168362	6.619625	-0.656475	0.570002	0.096143	-1.189453	0.786377	0.673096
24916		5.933217	3.954934	8.236738	0.115929	-0.189456	0.268739	-1.178223	0.781982	0.666992
24917		5.127283	4.243294	9.580145	0.912456	-1.156664	1.038198	-1.158936	0.797363	0.670654
24918		4.918785	5.398686	9.904010	1.016236	-1.550690	1.692573	-1.130859	0.819580	0.680664
24919		3.748235	7.071698	9.731580	0.571996	-1.855046	2.135720	-1.093994	0.841553	0.692871
24920		3.485303	8.650645	8.896583	0.292756	-2.243045	2.500652	-1.054932	0.863525	0.711426
24921		4.826002	9.874689	8.819434	0.326468	-2.764732	2.761897	-1.007324	0.894531	0.746826
24922		6.324335	9.725137	8.573599	0.206162	-3.213870	2.874911	-0.961914	0.923096	0.781982
24923		7.657580	9.992075	8.416477	-0.109781	-3.590156	3.000401	-0.907471	0.949707	0.811035
24924		9.554736	12.472823	9.275157	-0.142846	-3.899418	3.220562	-0.826660	0.980713	0.848633
24925		11.365165	14.109220	8.810360	-0.901235	-4.066090	3.422588	-0.763184	1.002686	0.901367
24926		12.705350	10.738961	5.006166	-2.390201	-4.101632	3.460662	-0.686035	1.011719	0.967041
24927		13.024989	7.109083	2.542350	-3.077418	-4.004386	3.331517	-0.610596	1.005127	1.024658
24928		12.808403	4.471157	2.039695	-3.437860	-3.976231	3.030590	-0.537109	0.998779	1.091064
24929		13.258291	1.212297	1.245552	-3.989616	-4.099945	2.617421	-0.471924	0.974609	1.161865
24930		15.534879	-2.340087	-1.528725	-5.242969	-4.123976	2.106321	-0.399170	0.921875	1.248779
24931		20.314795	-5.918755	-6.916118	-7.729138	-3.552085	1.591473	-0.345215	0.838379	1.340576
24932		24.367807	-13.852509	-15.043890	-7.186648	-2.036983	1.063413	-0.309326	0.767822	1.410645
24933		19.190085	-15.069744	-15.868008	-3.168786	-1.775228	0.818351	-0.281982	0.743896	1.443359
24934		12.731706	-11.269062	-12.767979	-1.327731	-1.618592	-0.006119	-0.266357	0.743896	1.470947
24935		10.999241	-10.018270	-14.874767	-0.253586	-1.496808	-1.211795	-0.253662	0.757080	1.477051
24936		11.455269	-10.741370	-16.569452	1.713698	-1.280850	-1.678700	-0.256836	0.787842	1.480225
24937		11.003033	-11.161454	-16.317402	2.847690	-0.560025	-1.818864	-0.280762	0.838135	1.465820
24938		9.213508	-11.381022	-15.813990	3.119199	0.674127	-2.053940	-0.322266	0.888672	1.438477
24939		7.272298	-11.485938	-15.023137	3.471474	1.536504	-2.354860	-0.383789	0.937012	1.413330
24940		6.100705	-10.804366	-13.538960	3.051965	2.713387	-2.546513	-0.467041	0.980713	1.381836
24941		4.489871	-8.861429	-11.508127	2.220004	3.767790	-2.694879	-0.562744	0.995850	1.349121
24942		2.834304	-6.314584	-10.268846	1.455449	4.660659	-2.951307	-0.664551	1.002197	1.316650
24943		1.463527	-4.025918	-9.969109	1.000616	5.629747	-3.231912	-0.792480	0.992920	1.259033
24944		0.311851	-2.868857	-9.716349	0.987984	6.457234	-3.394589	-0.920654	0.981689	1.195068
24945		-0.060892	-1.971190	-9.188584	0.702207	6.974971	-3.558504	-1.047852	0.955078	1.123291
24946		1.303798	-2.573635	-9.716679	0.181916	7.819657	-3.497101	-1.186523	0.926270	1.026123
24947		-0.137180	-1.513662	-4.511911	0.578263	8.557490	-3.173687	-1.302490	0.888672	0.920898
24948		-3.150840	-0.992902	-6.393480	-1.304965	6.968835	-3.925982	-1.408691	0.822510	0.846191
24949		-0.558381	-3.234186	-9.824814	-2.481010	6.883232	-4.544505	-1.516357	0.732178	0.766113
24950		0.479140	-4.838122	-9.957503	-2.406896	7.651540	-4.499823	-1.611084	0.650879	0.656006
24951		-0.160983	-6.361012	-9.675210	-1.980906	7.617495	-4.524883	-1.688232	0.569336	0.543945
24952		-0.023974	-8.619955	-10.454604	-0.964765	7.358790	-4.502488	-1.756348	0.485840	0.412842
24953		1.870464	-11.117386	-10.398050	0.782754	7.129179	-4.550395	-1.804932	0.406982	0.281738
24954		4.018408	-13.605502	-8.256880	1.849813	6.426487	-4.837754	-1.846680	0.327881	0.165527
24955		6.583191	-13.062022	-5.457726	1.507848	5.411819	-5.088799	-1.872559	0.235840	0.073242
24956		8.514178	-6.524757	-5.237757	0.633970	4.384978	-4.888330	-1.878906	0.154541	-0.013184
24957		14.084837	2.866307	-7.443234	1.641417	3.389895	-3.563359	-1.890381	0.095459	-0.079102
24958		14.647512	0.548888	-2.871540	1.581072	3.216601	-2.060022	-1.891602	0.060303	-0.139160
24959		7.205989	-5.600102	-5.613944	0.903784	2.489718	-1.690738	-1.881592	0.025146	-0.178223
24960		-0.616186	-10.898039	-7.704888	1.151022	1.494441	-1.090013	-1.894531	0.011963	-0.203369
24961		-6.414039	-15.319796	-8.764688	1.401691	0.132473	-0.059508	-1.892334	0.014160	-0.184326
24962		-6.031979	-14.086038	-9.667466	1.292771	-1.427412	1.027221	-1.893311	0.044922	-0.151611
24963		-0.805811	-8.670053	-10.318526	1.281292	-2.545365	1.790311	-1.896729	0.088867	-0.095703
24964		4.739227	-5.641328	-10.951270	1.848709	-2.991251	2.606353	-1.896484	0.145752	-0.038330
24965		5.336740	-11.073819	-5.029491	3.332862	-2.835840	2.848401	-1.894043	0.207275	0.008301
24966		11.886373	-18.276624	11.267942	6.314388	-2.914598	2.988504	-1.883057	0.279785	0.059082
24967		27.342666	-5.500739	2.782992	4.633513	-4.175151	3.874953	-1.859131	0.365234	0.136719
24968		50.821054	21.201377	-3.007953	1.585653	-3.538324	4.773396	-1.831299	0.457520	0.182617
24969		18.245331	9.588186	-4.022393	-1.483835	-1.517322	3.754922	-1.812988	0.508057	0.223389
24970		8.352836	1.680204	-12.592602	-2.656679	-2.009398	3.249638	-1.777344	0.569580	0.287354
24971		1.017814	-5.191188	-25.895180	-4.496851	-2.542725	5.392270	-1.732178	0.670898	0.349854
24972		-19.697329	-24.754115	-20.869474	3.460211	-1.174350	6.084558	-1.685059	0.778809	0.319336
24973		-11.819383	-27.864983	2.540021	5.279100	-2.305355	2.860552	-1.638428	0.833740	0.355713
24974		9.284123	-20.811561	-5.873619	-0.230483	-4.358165	3.072523	-1.586670	0.877686	0.435059
24975		17.954928	-14.197338	-7.549623	-1.431799	-2.099801	2.172859	-1.552002	0.901855	0.474609
24976		15.462423	-9.723101	-10.792886	0.266528	-1.344690	1.392618	-1.519287	0.919678	0.484863
24977		9.426349	-11.377728	-6.973608	1.000438	-0.792437	2.013550	-1.480713	0.952637	0.490479
24978		10.542084	-16.609236	-6.927362	-0.681391	-1.669939	1.294269	-1.440918	0.952881	0.539307
24979		18.625932	-15.118103	-9.806428	-1.125311	-1.766064	0.554473	-1.409668	0.950684	0.562744
24980		20.722682	-11.086918	-10.212020	-0.224894	-0.822204	0.524470	-1.387451	0.946289	0.575684
24981		19.143340	-11.995185	-10.389880	-0.668893	-0.544792	0.785038	-1.354492	0.948486	0.588623
24982		17.825885	-13.717022	-9.952502	-0.552611	-0.356621	0.846946	-1.336182	0.931152	0.597656
24983		19.794964	-10.447104	-7.245541	-1.181872	-0.461852	-0.104422	-1.312988	0.906982	0.611328
24984		25.427618	0.596304	-7.025214	-1.216905	-0.530934	-0.798700	-1.296387	0.871826	0.623047
24985		27.762509	13.378927	-5.000153	-0.680994	-0.360150	0.060968	-1.275879	0.856445	0.623779
24986		21.375570	12.561041	-2.598237	-1.247101	-0.079647	1.133652	-1.255859	0.849854	0.630371
24987		18.717266	5.498899	-0.772113	-1.683507	-0.096593	1.172690	-1.237549	0.836670	0.645752
24988		17.157092	4.408799	1.744929	-1.564715	0.122689	1.183874	-1.219971	0.834717	0.641602
24989		14.988222	5.413377	5.317464	-1.281514	0.466204	0.848487	-1.208252	0.819336	0.650635
24990		15.063676	5.328028	8.166158	-0.790605	0.774178	0.366948	-1.209717	0.795166	0.630371
24991		14.354614	5.899425	9.232309	-0.475387	0.731071	0.073802	-1.211670	0.781982	0.617920
24992		7.696438	6.675227	9.944420	-0.153868	0.391223	0.346495	-1.202881	0.784180	0.611572
24993		0.774105	6.806698	10.871615	0.260639	-0.695798	1.133356	-1.183105	0.792969	0.624268
24994		-0.018990	6.492330	10.483952	0.326492	-1.540860	1.781522	-1.152832	0.812988	0.636475
24995		0.609533	7.145888	9.793518	0.331867	-2.127117	2.257658	-1.117920	0.823975	0.661621
24996		3.631745	7.763337	8.689931	0.322339	-2.712307	2.617055	-1.077148	0.861328	0.686035
24997		6.948337	8.637046	7.761913	0.233236	-3.176268	2.889109	-1.020752	0.894531	0.717041
24998		8.268233	10.401537	7.459612	0.010510	-3.485901	3.106765	-0.968506	0.920898	0.758789
24999		8.864340	12.392667	7.194654	-0.260878	-3.832024	3.290851	-0.905518	0.954102	0.796143
25000		10.210962	14.658959	7.970669	-0.329627	-4.045727	3.509103	-0.835693	0.982910	0.835938
25001		11.065861	13.060890	7.106370	-1.412421	-4.078595	3.577711	-0.765381	1.002686	0.894775
25002		11.653722	9.362179	3.540960	-2.678050	-4.042632	3.495678	-0.697021	1.007324	0.958496
25003		11.742717	6.990798	1.796923	-3.292760	-3.888299	3.266187	-0.621338	0.998535	1.018555
25004		11.769288	4.746869	1.443048	-3.571577	-3.839559	3.025950	-0.552246	0.987549	1.086914
25005		12.238320	1.993154	0.795856	-4.149399	-3.963985	2.759293	-0.482666	0.965820	1.164307
25006		14.025058	-1.206445	-1.434937	-5.536794	-3.971834	2.338554	-0.414307	0.910889	1.255371
25007		17.216783	-4.196471	-6.677594	-8.074636	-3.560720	1.816398	-0.353027	0.813965	1.349854
25008		21.601771	-10.782222	-13.519490	-8.296220	-2.431192	1.277255	-0.314697	0.732666	1.428711
25009		19.926641	-13.801525	-14.872603	-5.337867	-1.633552	1.022087	-0.283936	0.677734	1.479248
25010		14.346940	-12.350130	-14.400361	-3.693016	-1.232131	0.583058	-0.266846	0.633789	1.520996
25011		10.820832	-10.079489	-15.094141	-2.176574	-1.131978	-0.180589	-0.254883	0.614014	1.551270
25012		10.002076	-8.173330	-17.169404	-0.479478	-0.927976	-0.692808	-0.257568	0.625000	1.559570
25013		9.099133	-7.277900	-18.083887	0.813480	0.082323	-0.960035	-0.280273	0.642334	1.569336
25014		6.901564	-7.593489	-17.316592	1.806546	1.302616	-1.229271	-0.321533	0.684082	1.555176
25015		5.116872	-8.147430	-16.082378	2.562170	2.543448	-1.565075	-0.385010	0.734375	1.534180
25016		3.560134	-9.074636	-14.216160	2.994027	3.462160	-1.885063	-0.464111	0.778076	1.506836
25017		2.377649	-8.874548	-12.465080	3.030285	4.167619	-2.141975	-0.562500	0.812988	1.465088
25018		1.411241	-7.961054	-11.295976	2.723894	5.029809	-2.442990	-0.669922	0.845703	1.416748
25019		0.520311	-7.073146	-10.293042	2.735317	5.788822	-2.776922	-0.785889	0.871826	1.347656
25020		-0.011159	-6.287064	-9.178225	3.069586	6.382504	-3.119618	-0.914551	0.882568	1.266113
25021		0.214357	-5.323932	-9.733452	3.182162	6.909701	-3.477859	-1.043457	0.891113	1.178223
25022		2.409503	-6.037098	-8.854328	3.497043	8.257463	-3.754134	-1.187500	0.897461	1.046143
25023		0.477925	-4.620141	-3.363223	3.758460	8.772326	-3.873642	-1.315430	0.875488	0.912842
25024		-2.415751	-2.196147	-4.140445	0.938788	7.184836	-4.521999	-1.421875	0.818115	0.818848
25025		0.720685	-2.934816	-6.570067	-0.914177	7.019130	-4.999796	-1.523193	0.736572	0.721436
25026		2.172680	-2.154937	-5.501026	-2.075536	7.471076	-5.046410	-1.622070	0.646484	0.617920
25027		1.637740	-1.876802	-5.944708	-3.446116	7.193438	-5.146110	-1.696289	0.542969	0.525635
25028		3.561045	-3.303111	-9.230874	-3.794041	6.994845	-4.930165	-1.757080	0.444092	0.416260
25029		7.149513	-7.650881	-11.393472	-2.002652	7.172977	-4.384289	-1.807861	0.367432	0.287354
25030		9.809419	-12.509123	-7.429836	1.329190	7.109607	-4.072597	-1.845703	0.297119	0.162354
25031		12.950690	-14.632961	-5.955927	1.882158	5.816382	-3.970139	-1.867920	0.222656	0.048340
25032		15.633221	-15.952124	-8.357382	1.011693	4.394338	-2.999357	-1.866455	0.178955	-0.032959
25033		10.923200	-3.833941	-8.302019	0.605562	3.884410	-1.977137	-1.874268	0.141602	-0.103760
25034		5.818545	-0.723612	-4.454823	1.881836	2.873882	-2.103429	-1.873047	0.099854	-0.142578
25035		2.169548	-7.686107	-7.768524	2.267960	1.559030	-1.745516	-1.869873	0.069336	-0.177490
25036		-1.057418	-11.510925	-9.724813	2.684971	0.342693	-0.423133	-1.872070	0.069336	-0.181885
25037		-3.357931	-13.770470	-10.598656	2.882212	-0.853405	0.809913	-1.868164	0.086914	-0.154785
25038		-3.275685	-12.235467	-10.515123	2.725225	-1.684299	1.600975	-1.873779	0.121826	-0.113525
25039		-1.365514	-7.427594	-10.729942	2.291157	-2.760960	2.375816	-1.870850	0.172363	-0.055908
25040		3.749060	-3.897102	-12.429534	2.171521	-3.532873	3.015205	-1.866211	0.235840	0.007568
25041		4.209970	-6.093888	-4.739454	3.591924	-2.870108	2.946220	-1.850342	0.295166	0.050293
25042		7.862892	-10.960219	8.916692	6.580540	-3.089259	2.763938	-1.834961	0.361084	0.096924
25043		19.246914	-2.628441	9.101498	5.252312	-3.328058	3.112643	-1.812744	0.424805	0.143555
25044		37.496627	5.132818	-2.953061	-0.004201	-3.607618	4.035617	-1.782227	0.510498	0.206543
25045		23.975277	1.457720	-15.937178	-1.637831	-1.893282	4.312904	-1.749268	0.580811	0.244873
25046		7.325971	5.971668	-12.168503	-2.363068	-0.953048	3.748215	-1.720459	0.648926	0.297852
25047		2.191228	-1.549996	-21.211645	-3.126290	-3.502097	4.408062	-1.667236	0.714844	0.372070
25048		-1.188123	-14.464311	-16.032438	3.875527	-2.857403	4.674456	-1.624268	0.809570	0.356689
25049		-3.728579	-23.714898	-2.560348	5.747772	-1.024590	3.042843	-1.586426	0.864746	0.357178
25050		7.693039	-28.067197	-4.164388	0.014560	-3.170801	2.540595	-1.529785	0.897705	0.430664
25051		12.973264	-20.871729	-10.048468	-2.123006	-2.147747	2.231948	-1.499512	0.919678	0.466064
25052		10.593777	-9.490131	-10.208608	1.463954	-0.851059	1.654052	-1.460693	0.946289	0.458984
25053		8.215433	-8.102696	-3.915884	0.954064	-1.271482	1.531450	-1.427979	0.961670	0.484131
25054		14.539364	-11.176644	-6.223276	-0.857326	-2.124139	0.778816	-1.383545	0.957520	0.524658
25055		21.715345	-9.043985	-9.336865	-0.655165	-1.645763	0.688034	-1.363770	0.959717	0.545898
25056		19.022570	-8.664835	-8.756068	-0.496138	-0.649580	0.751513	-1.332520	0.955322	0.558838
25057		15.932868	-11.404120	-8.780923	-0.873496	-0.619707	1.014375	-1.297363	0.957520	0.573730
25058		18.105535	-13.258414	-7.394352	-0.650294	-0.755595	0.861268	-1.274902	0.948975	0.586914
25059		23.884171	-9.468195	-7.140861	-0.967669	-0.802978	-0.105269	-1.258301	0.918213	0.600586
25060		26.981373	2.009663	-6.881751	-0.912213	-0.502595	-0.227886	-1.235352	0.894043	0.607910
25061		24.443267	11.206447	-5.668971	-0.344250	-0.300438	1.123709	-1.215576	0.894043	0.608154
25062		18.730826	8.913012	-2.653902	-0.584828	-0.151291	1.484820	-1.188965	0.894043	0.612549
25063		17.906618	5.302239	-0.521643	-0.622034	-0.085708	1.204202	-1.170898	0.885498	0.608643
25064		17.091163	5.395260	2.557822	-0.669189	0.091374	1.178527	-1.157715	0.885498	0.612793
25065		15.672947	7.752857	5.349387	-0.669853	0.450797	0.999364	-1.148926	0.883301	0.598145
25066		14.050157	8.003968	6.518982	-0.834362	0.586405	0.775439	-1.135010	0.867920	0.598877
25067		11.101750	5.653532	7.057456	-0.781427	0.285990	0.561213	-1.134766	0.856934	0.596924
25068		5.658275	3.876522	6.224837	-0.554838	-0.370243	0.772084	-1.123779	0.859131	0.607666
25069		2.342717	2.872081	5.687565	-0.224986	-1.120503	1.306889	-1.099609	0.863770	0.620361
25070		2.987585	2.915773	6.585599	0.244098	-1.659836	1.786660	-1.066895	0.879150	0.632568
25071		3.885381	5.303986	7.173274	0.586507	-1.995167	2.098054	-1.034424	0.901123	0.646973
25072		5.367956	9.954520	8.011730	0.550449	-2.472089	2.379024	-0.991211	0.927734	0.667480
25073		6.660737	11.587126	8.293052	-0.361209	-3.019476	2.743967	-0.945313	0.947510	0.705322
25074		7.935365	10.422804	7.154513	-1.162244	-3.538824	3.003656	-0.886230	0.965332	0.753662
25075		9.213560	10.745337	6.591009	-1.508258	-3.985099	3.213119	-0.822266	0.978516	0.810791
25076		10.680684	11.018679	5.824771	-1.823713	-4.209659	3.348784	-0.749756	0.989746	0.857422
25077		12.687211	10.440677	4.514722	-2.256001	-4.231929	3.429465	-0.677246	1.005127	0.914307
25078		13.590129	8.697073	3.302259	-2.719030	-4.035301	3.492593	-0.605957	1.000977	0.986816
25079		12.783024	6.611992	3.050033	-3.172443	-3.807783	3.421575	-0.532959	0.998779	1.046631
25080		11.815325	3.824212	2.994034	-3.717639	-3.852920	3.176060	-0.450195	0.979248	1.104736
25081		12.403639	0.990322	0.546482	-4.336721	-3.950551	2.785209	-0.382813	0.950684	1.182373
25082		13.932141	-1.959413	-2.774530	-5.344374	-4.080029	2.273150	-0.309814	0.895752	1.260498
25083		16.614633	-5.311655	-7.716035	-7.204350	-4.106386	1.591292	-0.240234	0.807861	1.344238
25084		20.982310	-11.890224	-14.319200	-6.851080	-2.887691	0.909798	-0.200195	0.739746	1.410156
25085		19.025390	-13.608344	-14.792113	-4.541803	-1.737453	0.442786	-0.171875	0.693604	1.458252
25086		12.953790	-11.373295	-13.400125	-3.128560	-1.444215	-0.050660	-0.159424	0.658447	1.484863
25087		9.251529	-8.705816	-14.308418	-1.667450	-1.611381	-0.808513	-0.139160	0.649658	1.510742
25088		8.081846	-6.101132	-16.780680	0.144212	-1.447606	-1.306160	-0.135254	0.660645	1.520996
25089		6.680677	-5.264359	-17.804910	1.314816	-0.163335	-1.529735	-0.158447	0.693359	1.523926
25090		4.960222	-6.979757	-16.887653	1.896277	1.477994	-1.799417	-0.201660	0.732910	1.518311
25091		3.980651	-8.889340	-15.209210	2.387119	2.565703	-2.194629	-0.269287	0.767822	1.512451
25092		3.330279	-9.534089	-13.463989	2.428730	3.372592	-2.499365	-0.356934	0.807129	1.487549
25093		2.326340	-8.963683	-11.849187	2.001763	4.113802	-2.747704	-0.446289	0.833252	1.456543
25094		1.181882	-7.666942	-10.729612	1.570966	4.933996	-3.048548	-0.561035	0.833008	1.434814
25095		0.097407	-6.531896	-9.904613	1.634374	5.630266	-3.365511	-0.685547	0.845703	1.385010
25096		-0.356325	-5.990100	-9.610497	2.092184	6.185269	-3.625621	-0.812012	0.856445	1.326660
25097		0.078657	-5.915028	-9.858130	2.488035	6.704098	-3.815078	-0.947021	0.856201	1.247803
25098		2.396967	-6.638080	-10.103923	2.983612	7.931011	-3.994208	-1.093262	0.862549	1.134521
25099		1.195551	-5.059087	-3.844631	3.942371	9.068882	-3.835119	-1.226074	0.857910	1.002686
25100		-3.054092	-1.246748	-2.905787	1.740320	7.405808	-4.367145	-1.337402	0.811523	0.912598
25101		-0.642999	-1.773336	-6.289668	-0.960661	6.465030	-5.112976	-1.445313	0.729980	0.836426
25102		2.545108	-2.622820	-5.850069	-1.748442	6.985640	-5.280582	-1.544189	0.637695	0.743408
25103		3.045776	-2.399996	-6.392123	-2.837668	7.157713	-5.374896	-1.635742	0.529785	0.646973
25104		3.888780	-3.387530	-7.796083	-2.851469	7.033435	-5.212939	-1.707764	0.430908	0.543945
25105		7.022708	-6.637029	-9.097801	-1.849045	6.760020	-4.932940	-1.766846	0.343018	0.429932
25106		10.278443	-10.997382	-7.319002	0.293527	6.755985	-4.614295	-1.806396	0.263916	0.311768
25107		12.154561	-12.936995	-5.172702	1.060420	6.095476	-4.562048	-1.839355	0.182861	0.206299
25108		13.100188	-9.956002	-5.179822	0.604027	5.101524	-4.185094	-1.859375	0.110352	0.115234
25109		15.032840	-0.964647	-6.959632	0.852184	3.926263	-2.813292	-1.864502	0.064453	0.042725
25110		10.824701	-1.883794	-3.124342	0.646754	3.348197	-1.936837	-1.867920	0.031494	-0.015381
25111		3.578628	-7.084160	-6.998444	0.487151	2.482283	-2.070025	-1.873291	-0.012451	-0.056396
25112		-1.813849	-10.222164	-7.656555	1.046616	1.240056	-1.210234	-1.870605	-0.025391	-0.072998
25113		-4.607785	-13.548489	-8.581061	1.355685	-0.299371	0.126841	-1.877686	-0.014648	-0.054199
25114		-3.129416	-13.019193	-9.470571	1.260698	-1.507787	1.217852	-1.874268	0.022705	-0.015137
25115		0.576799	-9.579924	-10.847346	1.058672	-2.467535	2.091903	-1.878174	0.075439	0.038086
25116		1.541620	-7.516027	-10.525963	1.182878	-2.808163	2.669775	-1.871094	0.127930	0.093506
25117		5.108792	-9.840814	-1.805438	2.197778	-3.651686	3.043889	-1.864258	0.198242	0.177979
25118		14.227505	-11.980653	1.488112	4.272987	-4.740624	3.711309	-1.840576	0.288086	0.262207
25119		26.689622	0.573171	0.112452	2.683131	-4.632902	4.801953	-1.812988	0.391357	0.335205
25120		35.926749	14.470798	0.220179	1.656650	-3.943850	4.544301	-1.773682	0.470459	0.398438
25121		18.413879	-5.387192	-13.897908	-1.744485	-2.048542	3.648989	-1.746826	0.529785	0.436768
25122		4.350064	-7.491596	-19.134904	-2.851398	-1.328744	4.303665	-1.713623	0.598145	0.479248
25123		-21.519010	-22.400136	-24.468072	-0.038741	-0.880499	4.620746	-1.667969	0.679443	0.479004
25124		-17.233060	-21.593064	-6.600938	4.623871	-2.830762	3.486548	-1.615234	0.754395	0.527832
25125		6.980192	-11.751393	-6.191095	0.974422	-4.760473	3.545662	-1.554932	0.809326	0.596191
25126		17.516168	-3.867953	-8.121438	-0.819615	-2.872468	2.490863	-1.504639	0.831299	0.646484
25127		20.511080	-4.958539	-11.032161	-0.465731	-2.113942	1.255038	-1.472168	0.853516	0.675537
25128		13.483872	-15.054165	-9.810749	0.603871	-0.987345	1.952529	-1.433594	0.886475	0.677002
25129		7.930018	-25.096543	-6.233459	0.315701	-0.942838	1.981895	-1.392090	0.902100	0.697754
25130		12.928742	-21.469033	-7.101527	-1.135462	-1.898901	1.125508	-1.358643	0.895508	0.736328
25131		17.613043	-11.908394	-9.432027	-0.855010	-1.327754	0.923354	-1.320801	0.891113	0.751465
25132		17.797727	-7.196679	-8.758161	-0.458314	-0.910438	1.051591	-1.290039	0.895752	0.761963
25133		16.768941	-11.209680	-9.865613	-0.635495	-0.811347	0.975303	-1.256592	0.886963	0.768799
25134		16.685486	-14.925127	-8.017965	-0.523585	-0.678328	0.408492	-1.231445	0.864990	0.780273
25135		21.684612	-9.799507	-7.755995	-0.976250	-1.011045	-0.862792	-1.214844	0.829834	0.783691
25136		30.120573	3.031844	-8.052255	-0.667007	-0.895544	-1.565535	-1.207031	0.794678	0.793213
25137		30.202210	13.799699	-5.480899	-0.243664	-0.480019	0.319313	-1.180176	0.783936	0.791748
25138		21.176153	10.962972	-3.220932	-0.816584	-0.322730	1.704269	-1.160156	0.779541	0.791992
25139		17.970443	5.929861	-0.676205	-1.131137	-0.300082	1.074381	-1.139404	0.759766	0.794678
25140		16.503488	5.910324	1.703665	-1.120538	-0.183683	0.763581	-1.134521	0.744385	0.791016
25141		14.562877	6.454099	4.429267	-1.104125	0.140669	0.474469	-1.134033	0.729004	0.789551
25142		12.844132	5.478530	6.268099	-0.968278	0.575052	0.192666	-1.124512	0.709229	0.781738
25143		10.119985	4.281981	6.770837	-0.451335	0.421206	0.091152	-1.119629	0.694092	0.771484
25144		7.472006	2.865968	8.073730	0.568664	-0.356596	0.185255	-1.117432	0.696289	0.767334
25145		5.397655	3.564465	8.620682	1.401936	-1.142480	0.818685	-1.089355	0.713867	0.758545
25146		4.049147	5.978343	9.160945	1.693060	-1.564533	1.371204	-1.070313	0.735840	0.766357
25147		2.864897	9.171261	9.890889	1.497126	-1.963563	1.809309	-1.033447	0.760254	0.776367
25148		2.765452	12.807686	10.372751	1.187754	-2.521244	2.298047	-0.992432	0.788818	0.792480
25149		4.854196	12.231664	8.982654	0.669860	-3.176847	2.704514	-0.947021	0.817627	0.819336
25150		7.501292	10.376466	7.926166	0.386510	-3.693112	2.971974	-0.892822	0.848389	0.848389
25151		10.239805	9.680845	7.393673	0.228989	-4.137009	3.156404	-0.822998	0.879395	0.885742
25152		12.295485	10.522568	7.249793	0.042709	-4.373845	3.350815	-0.748779	0.903809	0.927734
25153		14.135596	10.411839	5.511943	-0.715136	-4.550640	3.564620	-0.669922	0.932617	0.971680
25154		15.266149	9.006837	4.189781	-1.324835	-4.415564	3.768557	-0.590820	0.945801	1.020508
25155		14.643161	6.745400	3.075458	-1.858561	-4.282904	3.690021	-0.513428	0.952637	1.073486
25156		13.702208	4.366736	2.069305	-2.361281	-4.260930	3.373589	-0.436035	0.950684	1.124756
25157		13.211725	1.939882	1.787087	-3.117352	-4.377685	2.983514	-0.357910	0.933105	1.185059
25158		13.890204	-1.432556	-0.204316	-4.583615	-4.591929	2.537349	-0.272217	0.893799	1.258789
25159		16.777947	-4.261108	-5.226754	-6.916561	-4.106841	1.964530	-0.196289	0.810303	1.350830
25160		20.150388	-10.099938	-12.735644	-8.767901	-3.277383	1.368432	-0.152832	0.711426	1.426025
25161		21.051880	-17.521137	-16.661807	-5.869345	-1.956673	0.941183	-0.123779	0.647461	1.479004
25162		14.394455	-16.757817	-14.743877	-3.606683	-1.511763	0.338273	-0.100098	0.605713	1.510254
25163		9.362706	-13.383350	-14.535361	-2.299471	-1.674823	-0.683336	-0.072998	0.588135	1.534180
25164		9.085003	-8.935186	-17.977033	-0.383092	-1.724250	-1.450957	-0.071289	0.601318	1.554932
25165		8.210731	-5.483075	-18.538474	1.301172	-0.495876	-1.652874	-0.079102	0.636475	1.558105
25166		5.709045	-5.973515	-17.151328	2.091668	1.097487	-1.813689	-0.126709	0.676025	1.552246
25167		4.051325	-8.283131	-15.754692	2.311987	2.746960	-2.135115	-0.196533	0.713135	1.550537
25168		2.778794	-10.269660	-13.768094	2.477801	3.742407	-2.413575	-0.291016	0.761230	1.531738
25169		1.453196	-9.969472	-11.934666	2.176818	4.395142	-2.692190	-0.391357	0.787109	1.502686
25170		-0.152784	-8.492187	-10.860070	1.630503	5.215938	-3.095761	-0.515869	0.804443	1.471924
25171		-1.493117	-7.352059	-10.021419	1.797518	5.903587	-3.492131	-0.637695	0.812988	1.426514
25172		-2.121308	-6.693766	-9.262867	2.631122	6.403661	-3.792104	-0.773682	0.841064	1.361328
25173		-1.585036	-6.223991	-8.683879	3.456822	6.902495	-4.037963	-0.913330	0.847412	1.280029
25174		1.059269	-6.698469	-9.979515	3.756877	7.932188	-4.282608	-1.066650	0.862549	1.157959
25175		0.523680	-5.389083	-3.742442	4.449358	9.564871	-4.135061	-1.215088	0.862305	1.021729
25176		-5.110524	-1.880181	-2.479020	2.034986	8.072353	-4.555265	-1.337646	0.818115	0.910400
25177		-3.089775	-2.270935	-5.550635	-0.295164	6.880998	-5.255733	-1.450195	0.740967	0.821045
25178		0.752127	-1.987380	-5.482281	-1.400347	7.305009	-5.424028	-1.553223	0.646484	0.721924
25179		1.486651	-1.989569	-5.312217	-2.858779	7.438020	-5.541794	-1.651611	0.538574	0.614990
25180		2.480665	-2.418746	-6.611226	-3.572642	7.337465	-5.307836	-1.723389	0.433105	0.514160
25181		5.736151	-5.996023	-9.652640	-3.494954	7.149834	-4.879950	-1.778076	0.347412	0.402344
25182		9.163100	-11.458569	-10.625337	-1.463076	7.263073	-4.338848	-1.824219	0.263916	0.267090
25183		12.940580	-17.022129	-7.049090	0.613311	6.910853	-4.114725	-1.853271	0.191650	0.142334
25184		14.763345	-18.297427	-5.766502	0.591664	5.938549	-3.851394	-1.871338	0.128174	0.030029
25185		13.015521	-8.592714	-7.703799	-0.264440	4.709205	-2.711732	-1.872314	0.086670	-0.053223
25186		10.483841	3.025489	-3.737441	0.414190	3.894103	-1.553108	-1.877930	0.053711	-0.115723
25187		5.313329	-7.693755	-6.066574	0.945655	2.615165	-1.839324	-1.875000	0.025146	-0.171875
25188		0.927670	-12.570129	-9.102159	1.809871	1.655979	-1.321997	-1.874268	0.001221	-0.194336
25189		-3.844188	-14.888638	-11.487260	2.407169	0.308109	0.040381	-1.874268	0.005615	-0.190430
25190		-6.337633	-12.664232	-11.563182	2.506743	-0.814336	1.160604	-1.873047	0.031738	-0.167969
25191		-4.892340	-8.048258	-10.576521	2.363275	-2.012565	1.993946	-1.876709	0.082275	-0.114502
25192		0.820133	-3.635484	-11.507347	2.100131	-3.331585	2.926993	-1.878662	0.145752	-0.048828
25193		5.341065	-3.440527	-9.201532	2.688246	-3.526857	3.237386	-1.869873	0.213867	0.014648
25194		11.115585	-8.079044	9.393517	5.987927	-3.057599	3.125702	-1.856445	0.279785	0.054932
25195		22.379873	-0.981154	9.547463	6.774257	-3.629353	3.468291	-1.839111	0.356689	0.103271
25196		46.794107	9.867197	3.595827	1.309056	-3.895117	4.377336	-1.820068	0.453369	0.178711
25197		27.703660	-0.301466	-10.659744	-2.638775	-2.455245	4.943069	-1.782715	0.525879	0.225098
25198		8.100609	2.076094	-20.323245	-2.525661	-1.332925	3.600921	-1.751709	0.589600	0.282471
25199		0.033124	-4.456326	-24.973587	-4.024161	-2.924375	4.884329	-1.707764	0.670898	0.347900
25200		-16.416906	-25.379041	-27.280474	4.539755	-2.494940	4.781076	-1.664551	0.761230	0.326172
25201		-5.854202	-24.290156	-1.296730	6.328633	-1.438336	2.800960	-1.625000	0.831787	0.345459
25202		7.946060	-17.732664	-5.984733	0.063944	-3.987797	3.201562	-1.572998	0.869141	0.416504
25203		17.706817	-9.930190	-9.307967	-2.837644	-2.343132	1.629465	-1.538086	0.882324	0.468994
25204		18.140072	-3.012452	-11.555429	1.463598	-1.427529	1.490999	-1.503906	0.913086	0.457764
25205		8.538941	-12.172522	-5.001159	1.174910	-0.566030	1.972717	-1.467041	0.939697	0.480225
25206		12.494242	-23.821237	-5.261753	-1.342587	-1.995464	1.047478	-1.427002	0.935303	0.527344
25207		22.869464	-19.870698	-8.537823	-1.347643	-1.607904	0.920547	-1.400391	0.935303	0.548584
25208		20.229303	-10.716112	-7.202876	-0.875483	-0.539159	1.042525	-1.367188	0.933105	0.561523
25209		15.534717	-9.784668	-7.308465	-0.771075	-0.480727	1.231507	-1.334229	0.935547	0.567871
25210		15.872454	-12.880877	-6.454615	-0.492367	-0.446472	0.807757	-1.309326	0.920166	0.581299
25211		21.363771	-11.807448	-5.796134	-0.674061	-0.474032	-0.343888	-1.299561	0.893799	0.584229
25212		27.059691	0.707257	-5.812916	-0.583135	-0.486714	-0.628352	-1.285400	0.869629	0.587402
25213		28.804283	17.139123	-3.545624	0.250656	-0.258353	0.776777	-1.256592	0.867676	0.579102
25214		20.484080	13.561848	-0.828406	-0.683281	0.154902	1.342558	-1.240967	0.865479	0.589844
25215		18.644014	5.255694	1.090522	-1.186334	0.230483	1.006357	-1.218506	0.850098	0.590332
25216		17.234634	5.123789	3.320717	-1.050599	0.384097	1.081658	-1.209473	0.843506	0.580078
25217		15.002667	8.344461	5.997139	-0.872939	0.513282	0.835741	-1.200195	0.834717	0.580322
25218		13.503734	9.218879	8.098931	-0.843135	0.311000	0.552193	-1.188721	0.823975	0.584961
25219		9.950072	8.380283	9.098037	-0.694430	-0.045136	0.649261	-1.179932	0.821777	0.583008
25220		4.423550	8.062488	9.031570	-0.605557	-0.612821	1.208364	-1.162354	0.823975	0.595703
25221		2.590359	7.769604	8.335685	-0.651221	-1.221471	1.737512	-1.135986	0.832764	0.604004
25222		2.126993	9.055296	9.110527	-0.530178	-1.661348	2.082527	-1.103271	0.845947	0.635742
25223		3.791102	11.801017	10.152212	-0.485205	-2.263033	2.396387	-1.066406	0.868164	0.662598
25224		5.900832	11.139254	9.936873	-0.863553	-2.825865	2.741288	-1.018555	0.890137	0.704590
25225		7.636302	8.423558	8.412649	-1.203908	-3.352575	3.069097	-0.968262	0.912109	0.746338
25226		8.563921	7.177834	7.041864	-1.172429	-3.869365	3.241722	-0.906982	0.934326	0.801025
25227		9.616571	7.472213	6.386370	-0.977487	-4.279565	3.349334	-0.839111	0.956299	0.853760
25228		10.908589	8.569401	5.921543	-0.904404	-4.432147	3.394770	-0.769287	0.985107	0.897461
25229		12.462311	9.315872	4.575456	-1.297257	-4.375252	3.335735	-0.696777	1.005127	0.946045
25230		13.318641	7.395585	2.529490	-2.003986	-4.210403	3.225364	-0.621826	1.009521	0.997070
25231		12.464043	4.601466	1.178677	-2.453067	-4.061976	3.055609	-0.546631	1.014160	1.052246
25232		11.175887	1.844913	0.554649	-2.784944	-4.069251	2.721512	-0.479736	1.003174	1.116455
25233		11.153315	-0.734231	0.327267	-3.527616	-4.299292	2.295472	-0.410156	0.979248	1.179199
25234		12.242528	-3.008213	-2.304843	-5.431158	-4.626393	1.707994	-0.325928	0.917725	1.281006
25235		14.717265	-5.322479	-8.859765	-9.130977	-4.644741	1.169069	-0.264404	0.803223	1.380127
25236		22.123966	-13.398474	-18.953315	-10.008309	-2.575332	0.958847	-0.231201	0.686768	1.466553
25237		19.439512	-15.750090	-17.212395	-6.467448	-0.920030	0.644704	-0.215088	0.609863	1.513672
25238		12.507758	-10.670242	-16.094729	-4.063661	-1.508944	-0.014770	-0.196045	0.570068	1.551025
25239		8.650366	-5.374418	-18.328207	-1.511773	-1.341186	-1.054397	-0.191650	0.572266	1.570068
25240		7.620052	-1.701162	-17.805666	1.841126	-1.112666	-1.438557	-0.192871	0.605225	1.566895
25241		6.374072	-4.023178	-17.328950	2.492594	0.795536	-1.481557	-0.231934	0.653564	1.571289
25242		5.167476	-8.361377	-17.225422	3.058392	2.639115	-1.700475	-0.304443	0.706055	1.546143
25243		3.224393	-10.137137	-14.553585	3.795466	3.540240	-1.926347	-0.386475	0.769531	1.507568
25244		2.302800	-9.189314	-11.971512	3.790735	3.943924	-2.088235	-0.469971	0.820068	1.467285
25245		1.753534	-6.631745	-10.429901	2.834889	4.613196	-2.299490	-0.572754	0.846191	1.429932
25246		0.738693	-4.499280	-9.498680	1.826608	5.435464	-2.637608	-0.685791	0.858887	1.390869
25247		-0.727137	-3.519593	-9.427464	1.401814	6.041153	-2.980774	-0.805420	0.860840	1.330811
25248		-1.418835	-3.487840	-9.461419	1.863809	6.587823	-3.385634	-0.933838	0.860596	1.258301
25249		-0.770863	-4.246585	-9.526266	2.267532	6.992673	-3.658847	-1.068848	0.858154	1.170898
25250		1.778021	-5.789706	-11.444890	2.243957	7.965069	-3.811657	-1.205566	0.842529	1.054199
25251		2.016983	-5.590206	-5.247355	3.520828	9.733915	-3.526150	-1.338135	0.831543	0.895020
25252		-3.089277	-2.159014	-4.109688	1.825451	8.274958	-4.108455	-1.454102	0.785156	0.787842
25253		-1.184127	-1.880164	-7.046337	-0.922933	7.271597	-4.883389	-1.551025	0.703613	0.673584
25254		1.681639	-2.462586	-5.290183	-2.017351	7.778296	-5.115427	-1.643066	0.606934	0.572510
25255		0.893774	-3.178250	-5.159975	-3.669446	7.366870	-5.482021	-1.714355	0.490234	0.480713
25256		3.201633	-5.107913	-8.421990	-4.059781	7.038485	-5.317503	-1.772949	0.382568	0.375732
25257		6.608433	-9.747072	-9.134110	-2.072171	7.225807	-4.659499	-1.819336	0.305908	0.238281
25258		8.789163	-14.041021	-6.302844	1.221468	6.704807	-4.264475	-1.850098	0.231201	0.115723
25259		13.314248	-18.801396	-6.584885	1.878748	5.369102	-4.079309	-1.857178	0.165527	0.022705
25260		14.203429	-17.184740	-6.572402	0.875942	4.481300	-3.241208	-1.872803	0.104248	-0.062256
25261		10.108281	5.556201	-6.975704	0.633135	4.042267	-2.492317	-1.862793	0.058105	-0.134766
25262		6.175987	-1.415472	-3.549668	1.564266	2.721453	-2.059293	-1.861816	0.025391	-0.178223
25263		2.145203	-9.943946	-7.228777	1.829595	1.723178	-1.414050	-1.863281	0.003418	-0.207031
25264		-1.712715	-14.128749	-8.963245	2.009850	0.294180	-0.027162	-1.859131	0.010010	-0.198730
25265		-3.112204	-13.566050	-10.540094	2.114511	-0.935751	1.061375	-1.864258	0.034180	-0.169922
25266		-1.984885	-10.096850	-9.368007	2.275570	-1.804054	1.921686	-1.861328	0.084473	-0.129395
25267		2.783051	-7.054949	-7.612486	2.609879	-2.980172	3.008206	-1.874268	0.143799	-0.069824
25268		6.991793	-9.201932	-8.535686	3.496240	-3.700196	3.802952	-1.854492	0.216309	-0.004395
25269		10.642849	-13.801324	8.300046	6.067617	-3.287579	3.886376	-1.841797	0.297363	0.037598
25270		19.300973	0.100162	3.875005	6.593972	-3.569143	4.026081	-1.822510	0.385254	0.092041
25271		38.130675	21.824697	-0.131854	2.502134	-3.255589	3.915758	-1.805176	0.459961	0.138428
25272		24.314720	5.954357	-1.355972	-2.302353	-2.324938	3.646753	-1.775635	0.510498	0.196045
25273		5.480674	0.363512	-20.345618	-3.770398	-1.888210	2.746286	-1.750488	0.554443	0.249756
25274		-2.491803	-10.474664	-22.860407	-1.270232	-1.606605	3.793286	-1.715576	0.635742	0.283447
25275		-10.832465	-27.466340	-20.030078	2.976177	-2.801254	5.816719	-1.659668	0.743652	0.318359
25276		-3.477654	-20.876742	-7.656759	1.524349	-3.405010	4.594705	-1.606689	0.814209	0.369385
25277		10.266062	-5.483330	-7.300055	0.522488	-3.179661	2.961162	-1.561768	0.862549	0.412354
25278		17.424669	-1.870607	-9.768297	0.172566	-2.393065	1.577409	-1.535645	0.875732	0.456543
25279		19.149848	-15.971114	-9.934368	-0.045486	-1.533069	1.458586	-1.494629	0.906494	0.470703
25280		10.895238	-26.434638	-8.371159	0.745614	-0.684675	2.300736	-1.462646	0.939697	0.486816
25281		9.198224	-23.989935	-4.080932	-0.171270	-1.340035	1.309260	-1.422852	0.939697	0.516602
25282		17.207781	-13.722713	-6.595225	-1.025383	-1.665648	0.777312	-1.382813	0.937500	0.538086
25283		18.435063	-6.803453	-6.426124	-0.235204	-0.957175	1.442904	-1.350098	0.948730	0.552734
25284		14.466436	-9.012021	-6.209267	-0.453857	-0.688201	1.494166	-1.319336	0.957520	0.561035
25285		13.504578	-13.539859	-6.517633	-0.386587	-0.605433	0.955791	-1.288086	0.946533	0.572021
25286		16.988492	-13.671388	-6.004469	-0.649728	-0.636567	-0.115283	-1.273926	0.922363	0.587891
25287		25.971494	-5.625745	-6.249310	-0.643677	-0.707117	-1.028994	-1.263672	0.880859	0.593506
25288		32.817418	9.247278	-5.805935	-0.103004	-0.438314	-0.284367	-1.239502	0.880859	0.591309
25289		25.289958	14.931638	-2.524146	-0.011897	-0.098643	1.784200	-1.217285	0.880859	0.587402
25290		18.834174	7.578099	-0.686021	-0.634060	-0.024870	1.158710	-1.195068	0.876709	0.589600
25291		19.030767	5.132116	1.185450	-0.972880	0.030891	0.968606	-1.185791	0.863525	0.590088
25292		17.441146	8.252935	3.607711	-0.935972	0.259118	1.077120	-1.174805	0.867920	0.585938
25293		15.162195	9.523490	6.787225	-0.819228	0.459473	0.913751	-1.158936	0.850342	0.582275
25294		12.527004	9.633287	8.456135	-0.751713	0.297611	0.730356	-1.152100	0.850342	0.582275
25295		6.967825	8.694795	8.236017	-1.018293	-0.047846	0.773664	-1.145020	0.837158	0.589111
25296		2.930259	6.598499	6.713926	-1.361085	-0.709544	1.226467	-1.125244	0.837158	0.610352
25297		2.449710	4.742711	6.116109	-1.253243	-1.279479	1.777029	-1.096680	0.843750	0.635742
25298		3.409493	4.691525	7.409004	-0.693468	-1.818986	2.133041	-1.063965	0.859375	0.656494
25299		5.287500	8.004345	9.574427	-0.052466	-2.309601	2.482391	-1.024902	0.881348	0.681396
25300		6.979574	9.214407	10.208452	-0.308811	-2.825079	2.764016	-0.977051	0.910156	0.718994
25301		8.140219	7.136492	9.182620	-0.736998	-3.308365	3.079795	-0.927002	0.932129	0.756592
25302		9.187320	7.552943	8.592628	-0.797263	-3.823048	3.295692	-0.859131	0.956543	0.804932
25303		10.795275	8.396467	7.317650	-0.904316	-4.330343	3.436326	-0.791504	0.985107	0.842529
25304		13.173708	9.305470	5.406138	-1.166129	-4.549181	3.489433	-0.714844	1.005127	0.899414
25305		15.402209	8.647092	3.721369	-1.563885	-4.449949	3.440162	-0.642090	1.018311	0.950195
25306		15.717955	6.399089	2.860267	-1.739001	-4.157946	3.366646	-0.565186	1.031738	1.002930
25307		13.949406	3.896797	2.183719	-1.975863	-4.104648	3.173641	-0.498779	1.034180	1.052002
25308		12.573908	1.334497	1.183919	-2.519289	-4.353394	2.809882	-0.418457	1.018799	1.105713
25309		12.726027	-1.710052	-0.557130	-3.529040	-4.713040	2.292750	-0.342529	1.001465	1.172363
25310		14.570359	-3.895451	-3.787060	-5.366225	-4.880670	1.530078	-0.264648	0.931152	1.261963
25311		18.049328	-6.462715	-10.623111	-8.374532	-4.670569	0.714502	-0.203857	0.841064	1.358154
25312		24.048777	-13.544239	-18.496407	-8.241129	-2.652134	0.531087	-0.173828	0.748535	1.428955
25313		18.393804	-13.310180	-14.070030	-5.876044	-0.971927	0.477772	-0.153564	0.676025	1.486572
25314		8.942392	-9.029776	-12.285004	-4.802078	-1.696566	-0.182094	-0.133789	0.621094	1.534912
25315		6.084352	-3.086234	-18.187592	-2.681370	-1.942026	-0.989505	-0.117676	0.605713	1.554443
25316		4.852050	-0.114445	-19.392948	0.825452	-0.899226	-1.209666	-0.127441	0.629639	1.564209
25317		3.924499	-3.366279	-16.943478	1.761684	1.314239	-1.513021	-0.179443	0.666992	1.560791
25318		3.440712	-8.603804	-17.340843	2.043941	3.146087	-1.866773	-0.260254	0.706299	1.554688
25319		2.237194	-11.322470	-16.087575	2.927124	4.001973	-2.134463	-0.343994	0.756592	1.525146
25320		1.073941	-11.250934	-13.505469	3.419380	4.502716	-2.319101	-0.442871	0.806885	1.489014
25321		0.207444	-8.992174	-10.853668	3.367137	5.099161	-2.552875	-0.559570	0.848389	1.438477
25322		-0.653390	-5.537396	-8.911418	3.092654	5.844831	-2.884966	-0.679932	0.874512	1.379883
25323		-1.713043	-2.797683	-7.988364	2.986197	6.422358	-3.210400	-0.804688	0.902588	1.314697
25324		-2.302559	-2.008702	-7.903677	2.905612	6.838172	-3.581854	-0.939941	0.908936	1.231201
25325		-0.356599	-4.303170	-10.490731	2.356069	7.744355	-3.895734	-1.088135	0.902100	1.124756
25326		0.552667	-5.936454	-5.556319	3.554235	9.156206	-3.658002	-1.223389	0.906250	0.988525
25327		-3.401842	-3.381898	-3.127953	2.845168	8.128103	-4.021858	-1.354980	0.868896	0.870361
25328		-2.550094	-2.452155	-5.353396	0.199380	6.877893	-4.908317	-1.452393	0.800537	0.781250
25329		1.452827	-2.583315	-6.100622	-0.787005	7.237181	-5.360451	-1.555908	0.714600	0.677490
25330		1.998242	-1.713352	-5.693020	-2.253428	7.385549	-5.580770	-1.651855	0.606934	0.574707
25331		2.206490	-1.851267	-6.663504	-3.153128	7.102734	-5.453933	-1.728271	0.507813	0.479980
25332		4.758983	-5.245239	-9.135264	-3.024266	6.831678	-5.080088	-1.787109	0.413330	0.366211
25333		7.406563	-10.698946	-9.919157	-1.136786	6.994079	-4.639396	-1.835449	0.327881	0.235596
25334		10.006242	-15.696355	-6.904048	1.426702	6.655694	-4.456479	-1.862061	0.253174	0.119141
25335		12.881313	-17.945701	-6.671027	1.725944	5.693900	-4.315869	-1.886230	0.174316	0.013672
25336		12.140489	-13.065817	-6.752804	1.190680	4.620516	-3.364421	-1.886719	0.119629	-0.073486
25337		9.638534	2.867834	-4.870231	0.712970	3.715046	-2.147949	-1.883545	0.084473	-0.139893
25338		5.687731	-1.886250	-4.054538	1.402292	2.588525	-2.006293	-1.891113	0.044922	-0.181152
25339		1.856742	-8.722402	-7.018044	1.858097	1.660153	-1.497906	-1.885986	0.020996	-0.205811
25340		-2.203408	-13.931469	-9.674678	2.458725	0.335579	-0.345008	-1.890381	0.020996	-0.205811
25341		-4.526410	-15.224205	-10.318930	2.482726	-0.772759	0.828915	-1.895508	0.040527	-0.178955
25342		-2.085739	-10.369806	-8.551724	1.779531	-1.832072	2.075465	-1.894775	0.088867	-0.138184
25343		1.853749	-5.121475	-7.472594	1.351820	-3.149282	3.142121	-1.899170	0.158936	-0.062012
25344		9.408554	-5.983868	0.842299	2.830002	-4.269285	3.969177	-1.886475	0.249023	0.019775
25345		22.830226	-7.451555	3.900574	4.701257	-4.731565	4.651838	-1.869873	0.347900	0.099121
25346		43.336469	15.299625	-2.140294	1.496475	-4.514112	5.489448	-1.844238	0.448730	0.172363
25347		27.518128	6.987489	2.754441	0.035996	-2.666055	4.239580	-1.820313	0.525635	0.218750
25348		11.933600	-6.318086	-13.351471	-1.018400	-2.528238	3.677931	-1.789551	0.596191	0.265137
25349		0.174964	-12.136657	-22.133020	-1.967556	-1.783747	4.780513	-1.743652	0.677490	0.298828
25350		-34.602098	-32.764462	-19.907792	2.850467	-0.671671	5.477884	-1.696289	0.778809	0.306396
25351		-9.458957	-24.194469	-3.915658	2.565485	-4.964329	3.753583	-1.638672	0.849121	0.401855
25352		9.792308	-11.539048	-11.368187	-0.106769	-3.855553	3.537138	-1.589600	0.899658	0.442871
25353		13.469735	-5.498052	-9.872623	-0.241260	-1.744416	2.115328	-1.554932	0.926025	0.484619
25354		14.723374	-10.590809	-10.426642	-0.185466	-2.061758	1.235713	-1.511475	0.948242	0.513672
25355		15.742914	-17.288614	-10.523678	0.335868	-1.552899	1.614456	-1.479004	0.970215	0.532227
25356		19.026922	-19.347963	-8.910568	-0.010607	-1.713162	1.129294	-1.445557	0.963623	0.570801
25357		21.345823	-14.854757	-9.976954	-0.750284	-1.141065	0.449489	-1.416992	0.968262	0.585449
25358		19.382962	-10.261610	-9.440232	-0.621466	-0.858514	1.412537	-1.379639	0.974854	0.604492
25359		16.121715	-12.335442	-9.086038	-0.785694	-0.772648	2.248612	-1.331299	0.988037	0.621338
25360		14.230167	-14.855658	-8.699932	-0.593465	-0.628577	1.552982	-1.302734	0.988281	0.629883
25361		17.434527	-11.650245	-6.777823	-0.893560	-0.825160	-0.077932	-1.290527	0.961914	0.649902
25362		26.775895	-0.521123	-7.046959	-0.978516	-0.971663	-1.394193	-1.282471	0.917969	0.661865
25363		32.012114	14.872407	-5.201323	-0.130060	-0.479511	-0.415385	-1.257813	0.906982	0.662354
25364		21.799055	12.469556	-2.551300	-0.854663	-0.178706	1.656975	-1.231201	0.906982	0.668945
25365		18.085499	5.257167	-0.993367	-1.222208	-0.251193	1.340755	-1.204346	0.896240	0.682129
25366		17.120630	4.247235	1.831662	-1.271201	-0.037977	1.216016	-1.188477	0.887451	0.684570
25367		15.369695	7.087583	4.600682	-1.173699	0.301339	0.968494	-1.183594	0.876465	0.685059
25368		13.525742	7.905482	6.742307	-0.969814	0.535118	0.568113	-1.178711	0.863281	0.681152
25369		10.768356	7.431728	8.536303	-0.559204	0.332076	0.370690	-1.169922	0.861084	0.675049
25370		7.258986	6.743863	7.868188	-0.402563	-0.336130	0.544144	-1.156494	0.854492	0.683838
25371		4.917477	4.322429	7.164339	-0.260750	-1.066842	1.118474	-1.134521	0.858887	0.689941
25372		3.852917	3.251501	7.859035	0.148719	-1.597171	1.681630	-1.104004	0.876709	0.708740
25373		4.175638	5.291786	9.074244	0.770649	-2.157123	2.120361	-1.069580	0.905273	0.727051
25374		6.730579	9.654498	9.322155	0.843547	-2.754822	2.487788	-1.021729	0.925293	0.750000
25375		9.307675	10.303549	8.642893	0.244186	-3.238052	2.885618	-0.971680	0.949463	0.783203
25376		10.299128	8.856465	7.433663	-0.213487	-3.569850	3.190277	-0.910889	0.982666	0.820557
25377		10.751739	8.527923	6.842594	-0.363065	-3.796053	3.312153	-0.843262	1.015625	0.860107
25378		11.142648	9.452285	6.207350	-0.673473	-3.930176	3.378139	-0.773193	1.033447	0.908691
25379		12.254432	9.527384	4.121653	-1.511187	-4.013703	3.419417	-0.700684	1.053467	0.952881
25380		13.541523	8.234177	2.387464	-2.181767	-3.858601	3.449330	-0.630127	1.060059	1.010254
25381		13.072847	6.630965	2.445232	-2.385515	-3.591654	3.406467	-0.554688	1.058105	1.061523
25382		12.179380	5.116603	2.375820	-2.722463	-3.628739	3.218910	-0.481689	1.060303	1.114746
25383		11.769984	2.751380	2.182686	-3.530770	-3.884701	2.965500	-0.405518	1.036377	1.189941
25384		12.511276	-1.147061	0.150604	-5.004802	-4.318888	2.528299	-0.326172	0.985840	1.272461
25385		15.540171	-4.301535	-3.907265	-7.319947	-4.349268	1.920202	-0.247559	0.891357	1.375244
25386		21.056166	-8.883030	-12.842972	-10.238570	-3.501613	1.263633	-0.205078	0.761475	1.487793
25387		25.013626	-17.449174	-17.846015	-7.785695	-1.217574	0.948951	-0.179932	0.677979	1.541260
25388		15.082338	-15.736756	-13.956823	-4.486972	-1.037262	0.757756	-0.160400	0.627441	1.583252
25389		8.100334	-11.213381	-12.925203	-2.625775	-1.391540	-0.280282	-0.145996	0.601074	1.613770
25390		7.695073	-7.970939	-16.741210	-0.469368	-1.437540	-1.397233	-0.144043	0.609863	1.628418
25391		7.976635	-5.735810	-17.975560	1.813666	-0.360946	-1.760703	-0.165771	0.657959	1.628662
25392		6.194854	-6.150479	-16.374776	2.617874	1.313028	-1.833201	-0.216064	0.706299	1.618408
25393		3.971221	-8.546167	-15.657100	3.162568	2.482243	-2.010111	-0.284424	0.765381	1.599365
25394		2.533615	-10.529510	-14.476324	3.600414	3.212993	-2.243260	-0.370605	0.826660	1.569336
25395		1.754538	-10.386914	-12.674583	3.602458	3.911986	-2.517881	-0.462891	0.872559	1.529297
25396		0.762174	-8.055124	-10.656418	3.279773	4.714905	-2.907548	-0.574951	0.918457	1.480469
25397		-0.653490	-5.547818	-9.247940	3.028421	5.487928	-3.315995	-0.706543	0.946777	1.423828
25398		-2.031672	-4.041561	-8.616441	3.274532	6.144596	-3.727503	-0.842529	0.972900	1.341797
25399		-2.307036	-4.615162	-8.287714	3.664335	6.597747	-4.092928	-0.982178	0.981445	1.247803
25400		-1.686071	-6.027873	-6.836868	3.736330	7.027540	-4.384649	-1.126221	0.983398	1.141113
25401		-1.049007	-6.568018	-4.854420	3.092305	7.258932	-4.657450	-1.260498	0.958984	1.029053
25402		-1.321892	-5.342411	-4.575885	1.449571	7.065442	-5.130465	-1.387207	0.906006	0.928467
25403		-0.770973	-3.482054	-5.479010	-0.011142	6.994456	-5.453484	-1.508301	0.824463	0.824463
25404		0.149463	-0.926599	-5.408673	-1.262445	7.134853	-5.583525	-1.611328	0.725342	0.729736
25405		0.818618	-1.357543	-5.431730	-2.554650	6.990320	-5.752552	-1.709473	0.617432	0.631104
25406		2.586156	-4.094632	-7.533733	-3.077022	6.821783	-5.680476	-1.787598	0.507568	0.526123
25407		5.105515	-7.829784	-8.026878	-2.438579	6.965363	-5.359550	-1.861816	0.406494	0.410645
25408		7.726843	-11.713740	-7.203281	-0.205735	6.733219	-4.910806	-1.901367	0.322998	0.279785
25409		12.033697	-13.706398	-6.439922	1.568873	6.106154	-4.574397	-1.940674	0.235352	0.163818
25410		15.468760	-15.356013	-5.577736	1.778051	5.493627	-3.911137	-1.952148	0.171631	0.057861
25411		12.313751	-5.786356	-1.193043	0.594995	4.855518	-2.739184	-1.959717	0.125732	-0.040283
25412		8.660539	9.370714	-3.297338	-0.301108	3.713837	-1.851120	-1.967285	0.084229	-0.110840
25413		6.563005	-3.299324	-3.052374	-0.490344	3.054048	-1.610256	-1.966797	0.062256	-0.165039
25414		1.890394	-8.968247	-6.624154	-0.163396	2.173556	-1.206185	-1.972900	0.042480	-0.202637
25415		-1.380576	-14.933226	-8.503957	0.840727	0.863759	-0.541925	-1.966064	0.036133	-0.210938
25416		-3.435616	-17.000293	-9.922279	1.329957	-0.265875	0.749725	-1.975586	0.055664	-0.200928
25417		-3.001776	-11.590899	-9.831377	0.987712	-1.333591	1.853812	-1.977051	0.106201	-0.166504
25418		-0.405838	-5.782795	-13.768364	0.789277	-2.344793	2.670623	-1.981445	0.167725	-0.115723
25419		0.595615	-6.943568	-9.993828	1.924716	-2.748529	2.876064	-1.972412	0.233398	-0.056396
25420		9.303205	-12.534909	-2.689157	4.251167	-4.718049	2.881556	-1.969727	0.294922	0.045410
25421		27.330437	-10.873581	-5.248459	4.562704	-5.614295	3.840419	-1.948730	0.395752	0.137451
25422		50.927658	6.752778	-8.550826	3.078954	-4.275868	4.165646	-1.920166	0.470459	0.192383
25423		30.576432	11.413343	-5.650646	2.032803	-1.128047	4.383079	-1.888184	0.569580	0.202148
25424		4.856326	-4.694744	-18.845076	-2.921520	-1.289848	5.152845	-1.849121	0.657471	0.260742
25425		-11.748244	-9.468207	-22.109188	-2.279286	-2.193349	5.650965	-1.792725	0.754150	0.298340
25426		-24.102736	-19.717856	-9.925128	4.572332	-1.411439	4.207376	-1.757813	0.833496	0.300049
25427		-0.513101	-18.656534	-0.747174	2.492286	-4.044936	2.796709	-1.708740	0.890625	0.376953
25428		12.302831	-17.519752	-7.080418	-1.450274	-3.435887	3.259314	-1.657227	0.936768	0.439209
25429		14.600947	-14.014289	-11.628958	-0.864461	-1.725198	1.652760	-1.626709	0.956787	0.474609
25430		12.275324	-15.346296	-8.793619	0.451728	-1.313563	1.353792	-1.585449	0.980957	0.490967
25431		12.935829	-17.608110	-8.969505	-0.031529	-1.784731	1.417184	-1.552734	0.994141	0.531006
25432		20.149221	-15.131385	-9.444120	-0.605311	-1.942111	0.520694	-1.523682	0.989746	0.565186
25433		21.497178	-10.912861	-9.423429	-0.499580	-0.716331	0.457712	-1.494873	0.987793	0.571777
25434		17.412494	-9.842006	-7.077989	-0.692522	-0.593681	1.453590	-1.459717	0.992188	0.594971
25435		15.684067	-12.938809	-6.027137	-0.980452	-0.666520	1.660576	-1.424561	1.000977	0.611816
25436		17.629665	-11.160511	-5.515517	-1.125235	-0.761363	0.736585	-1.399414	0.979004	0.629639
25437		22.900964	-3.522874	-5.576788	-1.271931	-0.822408	-0.600850	-1.385010	0.946045	0.652100
25438		26.852753	6.282056	-5.426754	-0.967136	-0.554093	-0.628994	-1.370605	0.915283	0.659424
25439		24.573771	9.770071	-4.101413	-1.104717	-0.335655	0.790328	-1.341553	0.908936	0.678711
25440		20.121972	6.011841	-2.801514	-1.277842	-0.261809	1.512971	-1.317383	0.911133	0.683105
25441		17.306044	5.382051	-0.361160	-1.348939	-0.125134	1.452964	-1.297119	0.900146	0.689941
25442		15.172885	6.414923	1.094327	-1.379947	0.056078	1.199958	-1.274902	0.893555	0.698730
25443		13.535117	5.946140	2.604332	-1.281545	0.434945	0.757764	-1.270020	0.880371	0.695068
25444		11.693105	5.669756	4.845567	-0.691922	0.684980	0.451611	-1.262939	0.867432	0.684814
25445		10.521289	4.333788	7.268840	-0.225439	0.101127	0.232092	-1.253662	0.858643	0.685059
25446		9.089394	2.909326	8.198222	-0.077383	-0.477082	0.529653	-1.240723	0.863037	0.687256
25447		6.741092	1.970941	8.510708	0.128961	-0.993203	1.120157	-1.214111	0.865234	0.697754
25448		5.215158	4.018632	9.635999	0.439342	-1.467810	1.553759	-1.181641	0.883057	0.703857
25449		4.620840	8.295691	11.314452	0.581909	-1.938656	1.926964	-1.149170	0.902832	0.726563
25450		5.236022	10.620107	11.080926	0.070627	-2.494780	2.406896	-1.105713	0.924805	0.755859
25451		6.981427	9.757178	9.839129	-0.488459	-2.990632	2.836085	-1.060059	0.955811	0.795410
25452		7.978382	9.385762	9.221323	-0.754731	-3.416682	3.129854	-0.992432	0.984375	0.837158
25453		8.719745	9.901556	8.913231	-1.055176	-3.861379	3.296945	-0.931152	1.000000	0.891846
25454		10.387041	9.857228	8.199985	-1.569706	-4.217583	3.377016	-0.856445	1.024170	0.957275
25455		12.455481	8.310956	5.809648	-2.241040	-4.379359	3.397276	-0.779297	1.033203	1.018799
25456		13.233667	6.476171	4.267452	-2.460122	-4.227622	3.385984	-0.699707	1.037598	1.078125
25457		12.794423	5.356592	2.794195	-2.574552	-4.111060	3.308689	-0.622314	1.040039	1.137939
25458		12.244334	4.657820	2.067904	-2.735161	-4.022805	3.196631	-0.535889	1.035889	1.197754
25459		11.932081	3.836923	2.012316	-3.316792	-4.087700	2.952540	-0.459717	1.013916	1.266602
25460		12.261534	1.670774	0.664383	-5.105541	-4.300354	2.508904	-0.377930	0.958984	1.353516
25461		13.687090	-0.818829	-5.589809	-8.301598	-4.317936	1.824248	-0.305176	0.844727	1.471680
25462		17.637209	-6.322018	-15.947529	-10.601501	-3.350569	1.182450	-0.255859	0.706299	1.567383
25463		20.180923	-14.961238	-21.387139	-7.543027	-1.171269	0.970393	-0.239258	0.613770	1.625488
25464		13.887011	-15.798108	-19.175970	-4.108606	-0.852012	0.464311	-0.222412	0.576416	1.660645
25465		7.886451	-10.995251	-16.840178	-1.684408	-1.116278	-0.526864	-0.217285	0.558838	1.682373
25466		6.780996	-6.532713	-17.529691	0.727583	-1.059522	-1.596273	-0.216064	0.589600	1.683594
25467		6.121166	-3.682872	-17.378421	2.884565	-0.263289	-1.768335	-0.238037	0.651123	1.675049
25468		4.349636	-5.970419	-16.127530	3.714983	1.526361	-1.887795	-0.295654	0.712402	1.649658
25469		2.833467	-9.804724	-14.548670	4.145245	2.780700	-2.260117	-0.373291	0.784912	1.627686
25470		1.927792	-11.356695	-13.313934	3.991446	3.388875	-2.546234	-0.463867	0.846191	1.589355
25471		1.531097	-10.190046	-12.055719	3.246915	3.981415	-2.699554	-0.555664	0.878906	1.549561
25472		0.917853	-7.107332	-10.635937	2.377174	4.782410	-2.928129	-0.666992	0.900635	1.499756
25473		-0.226160	-3.564681	-9.809024	1.942222	5.602191	-3.247374	-0.798096	0.911133	1.439453
25474		-1.318582	-1.575885	-9.696318	2.180586	6.216685	-3.594124	-0.930908	0.913086	1.370850
25475		-0.743722	-1.778908	-10.855653	2.548314	6.723845	-3.951767	-1.072510	0.910645	1.277100
25476		1.782484	-4.591719	-10.453913	3.185802	8.098587	-4.108672	-1.227783	0.919189	1.144775
25477		0.274252	-5.117047	-4.369317	4.324196	8.825677	-3.838707	-1.358154	0.907959	1.002441
25478		-2.436305	-3.184707	-3.458295	2.327194	7.286852	-4.529019	-1.476074	0.857422	0.887207
25479		0.392472	-3.282343	-5.527104	-0.209301	6.763566	-5.140663	-1.588379	0.775879	0.791748
25480		2.794511	-3.096312	-5.406845	-1.526004	7.093020	-5.347665	-1.682617	0.678955	0.688477
25481		3.949812	-2.572313	-5.788365	-2.508756	7.065076	-5.437299	-1.763184	0.566895	0.577393
25482		5.852909	-3.378666	-6.890003	-2.388091	6.881032	-5.240637	-1.832764	0.463623	0.463867
25483		8.637922	-7.012458	-6.669759	-1.228476	6.731469	-4.830520	-1.896484	0.375732	0.343750
25484		10.888674	-10.970341	-6.269301	0.338871	6.649505	-4.379039	-1.929688	0.305420	0.216553
25485		12.121454	-12.699494	-4.740420	1.107941	6.226484	-4.020540	-1.956055	0.226563	0.092041
25486		10.737280	-9.728858	-6.240406	0.413146	5.128384	-3.557694	-1.965332	0.160889	-0.005371
25487		10.120501	-0.692152	-5.402823	0.150982	4.379398	-2.895711	-1.970215	0.101563	-0.083984
25488		7.516518	-0.862716	-2.708141	0.592407	3.270912	-2.627491	-1.975098	0.046875	-0.147705
25489		4.315174	-8.931368	-5.534960	1.409522	2.404700	-2.410309	-1.969238	0.002930	-0.190674
25490		1.463494	-15.220179	-6.640517	2.242910	1.400589	-1.548295	-1.970703	-0.021240	-0.215332
25491		-2.346741	-15.812641	-7.219656	2.120372	0.375323	-0.235266	-1.977295	-0.023438	-0.211182
25492		-5.414904	-8.178985	-8.748905	1.554302	-0.673495	1.130667	-1.973877	0.011719	-0.193115
25493		-3.944287	-4.162619	-7.572296	1.363701	-1.994562	2.080386	-1.977539	0.053467	-0.135254
25494		0.830851	-2.331692	-7.726212	0.894623	-2.814175	2.661615	-1.981934	0.123535	-0.074219
25495		4.471735	-2.837758	-10.602168	1.201774	-3.394085	3.090824	-1.983643	0.185059	-0.006348
25496		9.022658	-9.003251	-0.490695	2.973273	-3.363439	3.075628	-1.972900	0.259521	0.054932
25497		18.892571	-11.117282	7.845326	6.104221	-3.602503	3.143338	-1.964355	0.336426	0.120117
25498		34.139956	-5.051503	-3.455250	1.705634	-4.575343	3.885617	-1.931641	0.426514	0.210693
25499		34.950963	-3.387230	-10.433411	0.726203	-2.708761	4.719131	-1.901611	0.516602	0.239746
25500		16.015946	1.429149	-15.406074	-0.147482	-1.160750	4.287313	-1.871094	0.593506	0.273438
25501		2.002101	-0.220497	-23.983245	-3.164634	-2.193615	4.707153	-1.822998	0.681396	0.338379
25502		-9.395144	-10.129907	-19.927777	1.660290	-2.424010	4.995524	-1.775635	0.780518	0.348389
25503		-6.703131	-13.994963	-6.156074	6.578321	-1.780957	3.116986	-1.733887	0.851074	0.346191
25504		4.654752	-21.006308	-1.586884	1.325450	-3.069012	2.745368	-1.693359	0.899414	0.414795
25505		11.704866	-23.502637	-8.622936	-2.112052	-2.666768	2.349613	-1.649902	0.919189	0.463135
25506		10.703094	-15.677125	-9.186975	0.567927	-0.984377	1.695994	-1.615479	0.947998	0.475098
25507		9.176957	-12.862515	-4.897375	0.647966	-1.324739	1.330073	-1.580566	0.963379	0.498047
25508		14.682536	-13.675869	-6.834009	-0.877050	-2.106189	0.783776	-1.551758	0.965576	0.542480
25509		23.014396	-11.409516	-9.921634	-0.891432	-1.680011	0.265798	-1.520508	0.956787	0.572510
25510		22.300143	-8.982227	-10.262435	-0.485745	-0.631615	0.461225	-1.496094	0.954590	0.587646
25511		18.184176	-12.166275	-9.201583	-0.609068	-0.507217	1.228378	-1.460693	0.954834	0.598389
25512		17.842137	-15.525690	-6.940289	-0.592596	-0.527862	1.004450	-1.431641	0.948242	0.611572
25513		20.224064	-9.582216	-5.547621	-0.969474	-0.670879	0.089428	-1.408691	0.924072	0.631348
25514		27.093668	4.457758	-5.136763	-0.606961	-0.742467	-0.642957	-1.396729	0.899902	0.634277
25515		27.690121	17.466506	-2.041356	-0.154992	-0.232235	0.554233	-1.372314	0.895752	0.640869
25516		19.987517	11.670546	-1.412494	-1.606505	-0.171745	1.439486	-1.345215	0.880371	0.652100
25517		17.793041	5.797683	0.073853	-1.839606	-0.059723	1.354519	-1.316406	0.878174	0.660889
25518		14.984967	6.604377	2.605744	-1.693501	0.177704	1.349775	-1.305176	0.871582	0.669678
25519		12.685731	7.439844	4.807863	-1.704400	0.307312	1.003842	-1.286865	0.858398	0.678711
25520		11.131439	6.371610	6.894837	-1.444097	0.366109	0.662223	-1.279785	0.840820	0.672852
25521		8.445802	5.774628	8.465515	-1.253714	0.163536	0.511227	-1.268311	0.832275	0.679688
25522		4.359179	3.641692	9.469314	-0.925717	-0.337688	0.670081	-1.254883	0.825684	0.696777
25523		2.870114	0.834102	8.805789	-0.628504	-1.233853	1.291692	-1.228516	0.834473	0.713623
25524		3.979589	-0.566002	8.058106	-0.095707	-1.833344	1.953137	-1.193848	0.854248	0.734375
25525		4.516055	0.529498	7.214704	0.181405	-2.192691	2.416727	-1.152588	0.878662	0.754883
25526		5.694956	4.244408	8.154716	0.556825	-2.573094	2.691799	-1.102783	0.911621	0.779541
25527		7.722822	8.636162	9.401522	0.808002	-2.978850	2.908610	-1.051025	0.944824	0.804199
25528		8.864796	10.384578	9.864128	0.286947	-3.324223	3.157407	-0.988037	0.979980	0.839355
25529		8.819402	9.934061	8.580458	-0.477388	-3.668839	3.391413	-0.922607	1.008789	0.878906
25530		9.130173	9.878057	7.187100	-0.891498	-3.996013	3.529438	-0.848389	1.037598	0.927246
25531		10.178239	9.397236	5.673366	-1.427324	-4.244457	3.534417	-0.769043	1.050781	0.984375
25532		11.713009	7.872448	3.568845	-2.079365	-4.364641	3.490448	-0.687500	1.059814	1.041748
25533		12.719790	6.343632	1.658003	-2.625968	-4.325770	3.411220	-0.605469	1.057861	1.107666
25534		12.851645	4.619724	0.541843	-3.163050	-4.270702	3.220232	-0.525391	1.049072	1.169922
25535		12.772044	2.133446	-0.941999	-3.963369	-4.310585	2.871378	-0.442383	1.022705	1.249512
25536		13.840357	-0.767243	-3.935920	-5.287639	-4.245426	2.321975	-0.364990	0.963623	1.332275
25537		16.773769	-3.751908	-9.148287	-7.324190	-3.864116	1.703418	-0.302246	0.880127	1.421875
25538		20.884612	-9.844782	-14.947007	-6.764295	-2.606348	1.188750	-0.259277	0.798828	1.490479
25539		18.985043	-11.535314	-14.910645	-4.030292	-2.004050	0.741938	-0.226807	0.759033	1.536377
25540		14.081776	-8.781159	-13.009856	-2.688432	-1.745429	0.067305	-0.201660	0.732910	1.562744
25541		11.117844	-6.496616	-13.631096	-1.772315	-1.635754	-0.580993	-0.187744	0.717529	1.584473
25542		10.392115	-5.999000	-16.131239	-0.605102	-1.230939	-0.840834	-0.185547	0.719482	1.603516
25543		9.301413	-7.270980	-17.367733	0.070196	0.031454	-0.899076	-0.205566	0.728271	1.617920
25544		7.215693	-8.634389	-17.399398	0.598661	1.268830	-1.125190	-0.241699	0.745605	1.616943
25545		5.201703	-8.970074	-16.625933	1.357411	2.125653	-1.420680	-0.308838	0.774170	1.607422
25546		3.900657	-8.440189	-15.236265	1.858621	2.932589	-1.721631	-0.380859	0.811279	1.588867
25547		2.948444	-7.422693	-13.360375	2.100658	3.792192	-2.009794	-0.470703	0.846191	1.568115
25548		2.151169	-6.471617	-11.938721	2.293826	4.647399	-2.355504	-0.579834	0.870117	1.522217
25549		1.432520	-5.744183	-10.721627	2.731376	5.485327	-2.697721	-0.698242	0.900635	1.465576
25550		1.013325	-5.373374	-9.282608	3.252702	6.181214	-3.005827	-0.829834	0.931152	1.379395
25551		0.696032	-4.643248	-7.717352	3.336510	6.682921	-3.308143	-0.963135	0.946045	1.299805
25552		1.547600	-4.679879	-8.658916	2.563473	7.086660	-3.600387	-1.104736	0.945801	1.203857
25553		1.344353	-4.415116	-4.475193	2.909897	8.069565	-3.451894	-1.235352	0.938965	1.078369
25554		-2.070793	-2.926497	-3.804758	1.883500	7.073574	-3.920255	-1.358154	0.903809	0.983643
25555		-1.182807	-3.718161	-6.333429	0.377982	6.262216	-4.621527	-1.468750	0.839844	0.889893
25556		1.092809	-4.611450	-6.367205	0.015139	6.733914	-4.791753	-1.574951	0.767090	0.787842
25557		1.660154	-3.772128	-5.652171	-0.361555	6.835759	-4.899926	-1.663086	0.687988	0.681885
25558		2.140399	-1.977995	-5.561883	-0.787082	6.693476	-4.783562	-1.742188	0.604248	0.574219
25559		3.409154	-2.790595	-5.435288	-0.838464	6.540776	-4.598196	-1.814697	0.516357	0.460205
25560		4.918159	-5.912280	-6.343149	-0.502405	6.491611	-4.512068	-1.867676	0.441650	0.341797
25561		5.601534	-8.992160	-6.076372	-0.137728	6.335111	-4.469779	-1.911621	0.356201	0.223633
25562		6.172818	-9.704131	-5.656283	0.043925	5.577029	-4.589754	-1.935303	0.268311	0.120361
25563		9.104156	-8.461810	-6.509494	0.571308	4.523273	-4.172260	-1.953125	0.200439	0.035645
25564		13.125154	-8.931529	-6.789681	1.080187	3.687308	-2.819881	-1.956299	0.152100	-0.041016
25565		11.433178	-5.847433	-4.426241	1.184990	3.231372	-1.510782	-1.966797	0.132568	-0.099609
25566		5.623245	-4.430996	-5.746846	1.571781	2.279556	-1.443872	-1.972412	0.101807	-0.143066
25567		-0.078508	-9.113289	-7.259993	1.918594	1.303947	-1.052488	-1.969482	0.077637	-0.155029
25568		-5.229492	-12.210134	-9.313699	1.671358	0.179398	-0.270930	-1.969482	0.079834	-0.153076
25569		-5.658254	-11.947259	-10.024216	1.573004	-1.273507	0.980989	-1.979248	0.110596	-0.122314
25570		-0.313659	-8.174451	-10.326352	1.811094	-2.703124	1.919344	-1.978760	0.160889	-0.064697
25571		3.731574	-7.523939	-12.233233	2.371490	-3.145126	2.396738	-1.973877	0.215820	-0.000732
25572		5.369300	-12.322662	-0.577421	3.784070	-2.891090	2.574947	-1.966797	0.272705	0.054443
25573		14.605432	-18.896523	3.558981	6.154662	-4.411747	3.050324	-1.949463	0.354004	0.140869
25574		30.316420	-12.267098	-4.616046	2.676409	-4.446646	4.581220	-1.917480	0.459473	0.213867
25575		37.650764	16.345492	-4.334690	1.743518	-2.764381	5.128326	-1.880859	0.556152	0.238525
25576		16.173520	4.194509	-9.074062	-0.544499	-1.304614	3.214720	-1.855957	0.604492	0.277344
25577		5.122088	-4.720052	-26.028680	-4.484465	-1.779470	3.870050	-1.816162	0.677002	0.349365
25578		-10.942670	-16.679074	-25.081279	-0.164279	-1.390526	6.106904	-1.760742	0.793945	0.345703
25579		-13.934708	-20.779626	-5.014235	7.103549	-1.815608	3.301946	-1.720947	0.859863	0.345947
25580		6.488503	-16.143852	0.890656	-0.019834	-4.173932	2.143662	-1.675537	0.899414	0.448730
25581		18.280347	-9.668587	-11.806318	-2.100912	-3.264433	2.699517	-1.625732	0.932373	0.494385
25582		18.426161	-6.957506	-10.310987	1.123747	-1.118613	1.766159	-1.591553	0.963379	0.506348
25583		7.317052	-20.014689	-7.839541	0.651314	-0.559287	1.918396	-1.561523	0.987549	0.514160
25584		8.219766	-27.807902	-6.098462	0.153497	-1.589290	1.333129	-1.517578	0.998535	0.552246
25585		18.691037	-21.814880	-8.724625	-1.019105	-1.951032	0.659307	-1.483887	0.985596	0.576172
25586		21.566458	-10.110133	-11.167176	-0.352266	-0.826276	0.218169	-1.461426	0.979004	0.593506
25587		19.609980	-5.107499	-10.067112	-0.241772	-0.475030	0.414180	-1.437012	0.974609	0.604248
25588		15.578351	-9.483586	-9.422926	-0.404998	-0.347701	0.948030	-1.408203	0.970215	0.606689
25589		18.043046	-12.554274	-8.709170	-0.632580	-0.601553	0.090377	-1.383057	0.948486	0.626465
25590		25.792485	-7.034355	-7.424012	-0.946575	-0.559025	-1.269007	-1.376953	0.904541	0.634277
25591		32.566876	9.507955	-5.850243	-0.296506	-0.345673	-1.089673	-1.363037	0.882568	0.626709
25592		27.732158	19.413269	-1.069439	-0.436784	0.079721	1.213358	-1.340576	0.875977	0.633301
25593		20.181733	7.914469	-0.108910	-2.003097	0.127075	1.153637	-1.315674	0.858398	0.638184
25594		17.650347	5.367370	2.274718	-1.935359	0.429052	1.165067	-1.299805	0.843018	0.655762
25595		13.923787	7.400978	4.590724	-1.921642	0.698915	0.696226	-1.297119	0.829834	0.649902
25596		12.053791	6.810543	5.434105	-1.688152	0.889669	0.058538	-1.293945	0.801514	0.640137
25597		9.752582	5.628073	7.533192	-0.938184	0.695653	-0.085253	-1.289063	0.786133	0.638672
25598		6.669142	4.080429	9.596883	-0.063762	-0.057705	0.242166	-1.282227	0.781738	0.634521
25599		4.023065	4.294563	11.043680	0.640021	-0.876939	0.990670	-1.260498	0.790527	0.640869
25600		2.629982	6.104560	11.419705	0.648234	-1.468513	1.624253	-1.234375	0.803711	0.651123
25601		1.834269	7.234712	10.965535	0.411177	-1.876862	2.133831	-1.199951	0.836914	0.671387
25602		1.817430	7.706593	9.035240	0.275466	-2.278747	2.622805	-1.154297	0.861084	0.691895
25603		3.190844	7.063873	7.418306	0.257076	-2.773592	2.944564	-1.108887	0.889893	0.725098
25604		5.223589	7.115426	6.493336	0.298685	-3.244213	3.053694	-1.052734	0.929443	0.755859
25605		8.115047	8.568118	6.341807	0.179069	-3.684271	3.121220	-0.996582	0.967041	0.791016
25606		10.453755	11.776267	7.103080	0.168099	-3.981538	3.221643	-0.926758	0.995605	0.837158
25607		12.581828	14.877683	7.496849	-0.221895	-4.180014	3.390933	-0.854492	1.024414	0.883057
25608		13.310550	13.931168	6.552292	-1.265334	-4.126942	3.580251	-0.780029	1.042236	0.931641
25609		12.102466	10.508934	3.984673	-2.407896	-4.145650	3.535413	-0.700684	1.057617	0.997070
25610		11.337274	7.763277	1.964089	-3.047970	-4.209021	3.214251	-0.625244	1.053467	1.073975
25611		11.488948	5.639507	1.003217	-3.381295	-4.249185	2.908840	-0.556396	1.046875	1.131592
25612		11.524734	2.812647	0.795044	-3.868799	-4.398559	2.599456	-0.473389	1.018311	1.211426
25613		12.439822	-1.468150	-1.829839	-5.208462	-4.660970	2.081847	-0.394043	0.970215	1.302246
25614		15.395512	-5.242215	-7.544213	-7.773015	-4.497400	1.459188	-0.324219	0.873535	1.403076
25615		22.120420	-12.935546	-16.415431	-7.755553	-2.940800	1.009672	-0.281006	0.785400	1.473877
25616		20.997846	-15.241417	-15.896132	-3.729906	-2.069995	0.495500	-0.251221	0.759033	1.521240
25617		15.065933	-11.408584	-13.615742	-2.030368	-1.901965	-0.206728	-0.232910	0.739258	1.549561
25618		11.259531	-8.777552	-13.619864	-1.015989	-1.760729	-1.059754	-0.214844	0.732666	1.562500
25619		10.306917	-7.544870	-15.684925	0.390419	-1.643866	-1.536839	-0.211182	0.754639	1.581055
25620		9.246607	-7.847246	-16.604318	1.364455	-0.656600	-1.638487	-0.225342	0.785400	1.586182
25621		7.533527	-8.918963	-16.345318	1.874406	0.711037	-1.790700	-0.268799	0.824951	1.572021
25622		5.767035	-10.177056	-15.494342	2.166292	2.084833	-2.018458	-0.332031	0.859863	1.562012
25623		4.396310	-10.522448	-13.962137	2.399742	3.107494	-2.197006	-0.419678	0.901367	1.526367
25624		3.161837	-9.322339	-11.769512	2.290321	4.021195	-2.315839	-0.513428	0.929688	1.495361
25625		2.014845	-7.361032	-10.090985	1.932493	4.931272	-2.487938	-0.631348	0.947021	1.456055
25626		1.222565	-5.835643	-8.770167	1.735434	5.862329	-2.711461	-0.755371	0.955322	1.402100
25627		0.115010	-5.009650	-7.861366	1.715413	6.650596	-2.927862	-0.890625	0.961670	1.339844
25628		-0.404964	-5.291020	-8.745930	1.256599	7.022976	-3.177768	-1.027344	0.948242	1.259033
25629		1.167992	-7.298242	-8.747402	1.357345	8.263315	-3.286821	-1.168945	0.941406	1.142090
25630		-1.084857	-6.686075	-3.833902	2.029575	8.813007	-3.074891	-1.305664	0.921387	1.027832
25631		-3.647475	-5.261546	-4.511920	0.343685	7.351971	-3.785103	-1.423340	0.868408	0.929443
25632		-1.076510	-5.779418	-6.176895	-0.743706	7.186291	-4.281532	-1.531738	0.800049	0.829346
25633		0.682182	-5.200416	-5.580138	-1.305657	7.482738	-4.556193	-1.637451	0.718750	0.721436
25634		1.621531	-4.409326	-5.854322	-2.117834	7.316224	-4.632446	-1.725586	0.632813	0.617676
25635		3.259460	-4.073751	-6.892918	-1.993638	7.220731	-4.381983	-1.797852	0.544922	0.501709
25636		5.185674	-6.798228	-8.755708	-1.355100	7.091945	-4.167474	-1.864258	0.470215	0.370361
25637		7.029957	-11.191571	-9.128289	0.155099	7.065264	-4.019061	-1.904297	0.402344	0.230469
25638		8.383583	-13.864512	-6.114655	1.455497	6.562442	-4.102307	-1.935303	0.325439	0.105957
25639		9.428151	-13.166949	-5.442200	1.436268	5.371593	-4.103254	-1.953125	0.255371	0.000244
25640		10.515523	-7.675325	-7.196442	1.080109	4.103030	-3.284348	-1.957764	0.194092	-0.076172
25641		11.246537	1.240028	-4.429636	1.378066	3.401007	-1.954392	-1.961426	0.161133	-0.145020
25642		6.501784	-4.891277	-6.506518	1.526816	2.602971	-1.997914	-1.957764	0.115234	-0.192139
25643		1.757054	-9.897084	-9.781535	1.798555	1.835500	-1.451258	-1.965820	0.095459	-0.223389
25644		-4.501859	-13.012039	-10.965702	1.633161	0.735385	0.055206	-1.961914	0.108643	-0.229980
25645		-6.072441	-10.636184	-10.786765	1.168264	-0.822702	1.388589	-1.967285	0.139404	-0.203613
25646		-2.287345	-6.774925	-12.352584	0.965356	-2.333391	2.138381	-1.962402	0.194092	-0.148193
25647		2.514453	-6.338953	-10.033665	1.461392	-3.214521	2.627618	-1.961914	0.246826	-0.073730
25648		10.492770	-15.734831	-2.261069	3.282598	-4.762045	3.305921	-1.953369	0.327881	0.014648
25649		26.039753	-17.655577	-2.957541	4.682194	-5.139709	4.947078	-1.926025	0.442139	0.100098
25650		42.722563	22.580553	-5.091254	2.921164	-4.108058	5.031960	-1.900146	0.530029	0.150391
25651		27.460426	9.380744	-0.773247	0.251503	-1.947159	2.956328	-1.875488	0.582764	0.195313
25652		9.934800	-4.501548	-21.393185	-3.011890	-1.959440	3.797174	-1.842285	0.655273	0.258789
25653		-11.345977	-14.737639	-26.921220	-2.379639	-1.345789	5.325499	-1.790771	0.758789	0.266357
25654		-23.764818	-27.404045	-8.414105	6.654808	-1.717101	4.109335	-1.744873	0.837891	0.281006
25655		4.647849	-21.621926	-0.943251	1.756221	-5.051570	3.247122	-1.693604	0.901611	0.365967
25656		14.055330	-11.365537	-7.125878	-1.118557	-2.800267	3.301640	-1.648682	0.943604	0.411377
25657		12.878299	-7.779471	-9.503870	-0.018463	-1.573938	1.420893	-1.618408	0.965576	0.436279
25658		9.065284	-13.632232	-9.265202	0.985521	-1.177965	1.403015	-1.581299	0.983154	0.448730
25659		8.228191	-22.734320	-8.547275	0.421918	-1.447621	1.556791	-1.544189	0.998779	0.478027
25660		15.444795	-23.581124	-9.456585	-0.747296	-1.956746	0.545899	-1.512939	0.994385	0.518555
25661		21.973806	-15.513835	-12.423556	-0.580969	-1.152807	-0.365501	-1.496826	0.976807	0.540283
25662		24.179822	-8.279029	-12.051114	-0.236298	-0.702953	-0.190817	-1.469971	0.963623	0.542969
25663		20.437059	-10.299387	-10.548716	-0.404357	-0.194084	1.034012	-1.443604	0.968018	0.553711
25664		16.495066	-11.589433	-8.865902	-0.570458	-0.251923	1.144312	-1.414551	0.959473	0.562500
25665		20.610657	-7.148192	-7.803378	-0.878633	-0.518988	-0.453302	-1.402100	0.922119	0.580811
25666		29.980418	5.324583	-6.465821	-0.441647	-0.425273	-1.462370	-1.394287	0.886963	0.579834
25667		30.829627	18.968915	-2.799392	-0.121391	0.081534	0.213591	-1.367432	0.880371	0.575928
25668		22.182507	9.368500	0.362271	-1.506789	0.220389	1.005988	-1.356201	0.869385	0.578369
25669		20.407811	4.931870	2.704474	-1.596146	0.373632	0.946790	-1.335693	0.856445	0.583252
25670		16.628758	9.492776	7.097476	-1.390701	0.810710	0.768151	-1.322021	0.841064	0.577393
25671		14.642039	9.877868	9.668141	-1.286536	0.804632	-0.038297	-1.323242	0.814697	0.573975
25672		10.318090	10.790405	11.280547	-0.988427	0.750900	-0.178626	-1.327393	0.801514	0.563965
25673		2.861189	11.191748	11.925597	-0.734871	0.140828	0.181082	-1.315674	0.781738	0.564453
25674		-1.384510	8.700845	11.273842	-0.838132	-0.962129	0.929384	-1.293701	0.792725	0.593994
25675		-0.839198	4.402851	10.297507	-0.616248	-1.997602	1.716690	-1.265381	0.803711	0.619141
25676		1.270450	2.591468	9.128645	-0.010457	-2.631803	2.433992	-1.224121	0.832275	0.658691
25677		4.176025	2.132254	7.540490	0.493123	-3.034757	2.901702	-1.172363	0.867676	0.687500
25678		6.477427	3.690755	6.368177	0.842332	-3.265119	3.038650	-1.120361	0.900879	0.712158
25679		8.259565	8.055229	6.774464	0.957226	-3.486187	3.049496	-1.064453	0.944824	0.740479
25680		9.213018	12.432862	8.356604	0.772243	-3.742931	3.099646	-1.003906	0.986816	0.777588
25681		9.578996	14.383683	8.878689	0.297211	-4.128250	3.240480	-0.938721	1.024170	0.825439
25682		10.548665	13.523444	7.519321	-0.426062	-4.377724	3.412131	-0.864502	1.055176	0.867188
25683		11.638495	10.421641	5.072531	-1.248166	-4.400887	3.513547	-0.791992	1.070801	0.920166
25684		12.118656	8.174380	3.409263	-1.785018	-4.251617	3.529742	-0.715088	1.090576	0.985352
25685		12.105714	6.726410	1.906980	-2.342727	-4.198961	3.382721	-0.633545	1.097412	1.044922
25686		12.139947	4.040476	0.724094	-2.828392	-4.205557	3.142138	-0.553711	1.095215	1.102539
25687		12.184263	0.706178	0.317127	-3.392808	-4.325563	2.786501	-0.477539	1.071289	1.175781
25688		13.198401	-2.551055	-1.275071	-4.683997	-4.562839	2.241700	-0.392090	1.033936	1.268311
25689		16.046642	-4.786747	-5.224900	-7.212093	-4.485934	1.606234	-0.320068	0.943848	1.377441
25690		22.126476	-9.707509	-13.353121	-9.341375	-3.379477	1.156805	-0.280273	0.829346	1.478760
25691		23.617966	-14.357294	-16.380881	-7.041613	-1.445544	0.913517	-0.253418	0.759033	1.540283
25692		16.124221	-11.761993	-14.881309	-4.769400	-1.329528	0.619706	-0.231201	0.695313	1.586914
25693		10.883531	-8.511623	-16.315275	-3.313965	-1.283719	-0.259838	-0.223145	0.662354	1.624023
25694		8.774252	-6.602702	-19.663650	-0.995577	-1.035570	-1.003713	-0.216797	0.666748	1.636719
25695		7.377272	-5.614128	-19.488101	1.049523	-0.239782	-1.266291	-0.239990	0.703857	1.639648
25696		6.279219	-6.503514	-19.206301	1.874660	1.225646	-1.489050	-0.283203	0.734619	1.629883
25697		5.048356	-7.915272	-17.776272	2.407461	2.876418	-1.770556	-0.368652	0.778320	1.613281
25698		3.733774	-8.793666	-15.136645	3.083814	3.679947	-2.025648	-0.461182	0.830811	1.579346
25699		2.946488	-8.087177	-12.611334	3.028528	4.364848	-2.232876	-0.562012	0.865723	1.539551
25700		1.981905	-6.393878	-11.014575	2.366056	5.272166	-2.472477	-0.680176	0.891846	1.491455
25701		0.631074	-5.511020	-10.239932	1.925152	6.131526	-2.749254	-0.809082	0.908936	1.428711
25702		-0.589061	-5.372452	-9.984819	1.950357	6.766059	-3.079790	-0.952881	0.908691	1.354004
25703		-1.094147	-5.518353	-11.534329	2.026279	7.284591	-3.404975	-1.094238	0.899658	1.260254
25704		1.074871	-7.338023	-12.083069	2.601882	8.946549	-3.680169	-1.251465	0.897217	1.122070
25705		-1.499064	-6.567714	-5.882391	3.687452	9.803464	-3.533930	-1.397461	0.888184	0.964844
25706		-5.260739	-4.225684	-6.016652	2.131970	8.258312	-4.212337	-1.510986	0.839844	0.832520
25707		-3.766156	-2.426599	-7.360883	0.120519	7.919776	-4.869545	-1.628174	0.764893	0.705078
25708		-2.369067	-2.804499	-6.593908	-1.238204	7.835268	-5.408685	-1.724121	0.656982	0.593750
25709		-1.785367	-3.278610	-6.509493	-2.887642	7.480151	-5.747535	-1.800049	0.542725	0.484863
25710		1.229967	-4.333693	-9.530008	-3.213282	7.145830	-5.548185	-1.869385	0.426270	0.371826
25711		4.942662	-8.244409	-9.951047	-1.797186	6.885690	-5.080352	-1.913086	0.336426	0.241211
25712		9.918473	-12.583203	-8.472363	1.263827	6.411595	-4.844033	-1.945801	0.248535	0.118896
25713		16.822663	-16.244876	-5.662392	2.917936	5.703880	-4.477467	-1.963379	0.169678	0.002930
25714		19.435033	-18.281581	-5.932593	2.797785	4.226087	-3.246195	-1.965820	0.108154	-0.083984
25715		12.549283	11.756325	-3.613615	1.457520	4.264375	-2.593361	-1.966553	0.057861	-0.156494
25716		6.577993	-0.702002	-1.833600	0.780556	2.681113	-2.837557	-1.960449	0.000977	-0.216064
25717		2.506954	-7.090773	-5.899923	0.958691	2.126343	-2.246703	-1.956787	-0.045166	-0.248535
25718		-1.074799	-14.132092	-7.926619	1.608205	0.710944	-0.941018	-1.960938	-0.053955	-0.250244
25719		-3.964173	-14.876717	-8.171447	2.315796	-0.595902	0.590733	-1.961426	-0.034180	-0.231934
25720		-5.502735	-9.033799	-7.160378	1.794386	-1.734091	1.976554	-1.967285	0.011719	-0.184814
25721		-2.192588	-6.392681	-7.257442	1.385216	-2.953059	2.677396	-1.968994	0.068848	-0.118896
25722		1.288644	-4.226967	-8.956978	1.098200	-3.292573	3.027615	-1.975586	0.136719	-0.046875
25723		4.988464	-3.761549	-12.540874	1.160462	-3.736435	3.394767	-1.966553	0.204834	0.029297
25724		10.040023	-10.306386	-2.322991	2.963820	-2.898025	3.424993	-1.954102	0.290527	0.058350
25725		13.094254	-12.726692	17.653293	9.116542	-1.881126	2.958226	-1.947266	0.352051	0.085938
25726		25.026218	-2.589902	12.227303	4.399798	-3.192724	3.229594	-1.914795	0.437744	0.148926
25727		39.211119	-17.800024	-9.612129	-0.071080	-3.541273	5.156447	-1.878174	0.538818	0.200928
25728		13.029666	0.285316	-13.235978	-0.100716	-0.385119	5.105665	-1.846191	0.631104	0.208740
25729		1.546033	16.532415	-17.003257	-3.067872	-1.768598	3.979173	-1.808350	0.694824	0.300049
25730		-0.824291	2.207985	-25.602065	-3.638700	-5.214926	3.692448	-1.754883	0.758545	0.387207
25731		-2.341013	-17.128795	-17.996250	5.735526	-1.187324	3.842699	-1.716309	0.848877	0.329590
25732		1.691682	-23.569381	-2.446147	6.030974	-1.122843	3.020615	-1.674316	0.917236	0.350830
25733		14.232126	-28.306531	-7.597788	-0.100214	-3.703559	2.769741	-1.628906	0.947998	0.413574
25734		14.196186	-22.278956	-11.066214	-2.616377	-0.912861	1.569165	-1.598389	0.963379	0.438721
25735		10.346510	-10.328320	-10.193108	1.973837	-0.605705	1.401943	-1.563965	0.989990	0.429443
25736		9.557695	-11.179247	-4.093666	0.906945	-1.208164	1.785573	-1.527100	1.011963	0.462891
25737		17.968345	-13.246039	-7.158519	-1.303472	-1.897895	0.698559	-1.500244	1.003174	0.505615
25738		25.311539	-9.598737	-9.471595	-0.666291	-0.990883	0.312235	-1.466797	0.996582	0.520752
25739		20.257130	-11.343447	-9.112000	-0.812883	-0.010014	0.704173	-1.444580	0.992432	0.523193
25740		16.789650	-15.308017	-7.582781	-0.500452	-0.052901	1.015483	-1.420166	0.990234	0.527588
25741		20.082058	-14.280037	-6.047530	-0.520191	-0.366957	0.229463	-1.396973	0.963867	0.543457
25742		26.760537	-3.870240	-6.284780	-0.426048	-0.424619	-0.666589	-1.382813	0.937500	0.540039
25743		29.867661	11.173992	-3.905619	0.067663	-0.060029	0.240623	-1.365234	0.937744	0.538086
25744		23.193612	13.608745	-0.733650	-0.736992	0.325146	1.269846	-1.340820	0.933350	0.534180
25745		20.241506	5.536914	0.412415	-1.359461	0.455888	0.940842	-1.324951	0.920166	0.541016
25746		17.956043	7.633387	3.693819	-1.104260	0.782081	1.060101	-1.304688	0.909424	0.535156
25747		15.545219	13.259946	7.678297	-1.349117	0.974442	0.679178	-1.304199	0.895996	0.537598
25748		14.164249	12.343994	8.328815	-1.863277	1.003078	0.291426	-1.303467	0.874023	0.538330
25749		7.061262	10.197428	8.870633	-1.786270	0.774653	0.274097	-1.298340	0.854492	0.534912
25750		0.228935	6.997531	8.062104	-1.453344	-0.259898	0.683426	-1.280518	0.852295	0.552002
25751		2.062010	3.760565	6.310424	-1.023936	-1.333613	1.411697	-1.256348	0.861084	0.581299
25752		3.459145	0.933546	6.043285	-0.443477	-1.692121	2.036825	-1.223633	0.876465	0.604248
25753		4.037996	1.323139	5.921193	0.010391	-2.076134	2.579444	-1.176025	0.907227	0.631104
25754		4.357963	4.955437	5.882016	0.349852	-2.382843	2.873760	-1.137451	0.942627	0.645020
25755		4.432612	8.553984	6.531554	0.264240	-2.717752	2.952304	-1.089844	0.971191	0.680420
25756		4.941604	9.841159	6.682322	-0.094104	-3.193079	2.947240	-1.039795	0.997803	0.715820
25757		6.736444	11.193929	7.116602	-0.319089	-3.755347	3.007617	-0.974609	1.030762	0.763672
25758		8.798893	11.470678	6.633283	-0.727912	-4.248208	3.108642	-0.908936	1.057373	0.812012
25759		10.577710	10.991269	5.340498	-1.062096	-4.484492	3.186286	-0.834229	1.072998	0.864746
25760		11.775489	9.935363	3.608826	-1.524476	-4.525473	3.200634	-0.768555	1.094971	0.923584
25761		12.455752	8.449087	2.002736	-1.955468	-4.450384	3.126270	-0.689209	1.106201	0.985107
25762		12.664725	6.884077	0.872923	-2.366331	-4.388920	2.983871	-0.607178	1.106201	1.044922
25763		12.805609	4.611195	0.412553	-2.790779	-4.345586	2.816536	-0.531738	1.097656	1.111084
25764		12.488589	1.869919	0.782693	-3.520133	-4.419234	2.550142	-0.448975	1.080078	1.184082
25765		13.053363	-0.920056	-1.542154	-5.393918	-4.564539	1.990016	-0.374023	1.025146	1.277344
25766		15.747995	-3.267002	-7.989136	-8.584657	-4.317911	1.291052	-0.303467	0.915283	1.397461
25767		22.217030	-10.948150	-16.258348	-8.787202	-2.996743	0.736512	-0.270752	0.809570	1.477295
25768		20.659507	-13.642054	-16.237611	-5.542437	-1.812636	0.441060	-0.244385	0.752441	1.525879
25769		14.065462	-11.616291	-15.300354	-3.950195	-1.459314	0.009383	-0.220459	0.704102	1.576172
25770		9.560851	-9.352405	-16.032139	-2.428245	-1.495620	-0.805788	-0.213135	0.686523	1.610596
25771		7.919546	-6.175643	-18.213359	-0.396471	-1.292766	-1.257774	-0.210938	0.686523	1.619141
25772		6.353016	-3.976384	-17.954420	0.841416	-0.013025	-1.408501	-0.238525	0.717041	1.624268
25773		4.948595	-5.377203	-17.016643	1.272832	1.700028	-1.590594	-0.287842	0.741211	1.614746
25774		4.355268	-8.368075	-15.146383	1.785281	2.816763	-1.844086	-0.361816	0.771729	1.602783
25775		4.070758	-10.036936	-13.498656	2.026388	3.476600	-2.048937	-0.442627	0.804443	1.586426
25776		3.389148	-9.836257	-12.234747	1.830720	4.166597	-2.251385	-0.544922	0.823975	1.557861
25777		2.234019	-8.651620	-11.052624	1.649029	4.979395	-2.583901	-0.656250	0.841309	1.514404
25778		0.974384	-7.469486	-9.973835	1.923246	5.672430	-2.956278	-0.784668	0.849609	1.460449
25779		0.235893	-6.682162	-9.428128	2.481103	6.115165	-3.251704	-0.913330	0.860352	1.393799
25780		1.201961	-6.686073	-10.991528	3.055142	6.945519	-3.444435	-1.053711	0.882080	1.284424
25781		1.785010	-6.901140	-7.311429	4.125120	8.380328	-3.499893	-1.202637	0.897217	1.151855
25782		-1.045638	-5.498616	-4.036325	3.986468	8.258278	-3.800462	-1.333252	0.890625	1.020264
25783		-3.125912	-3.147413	-5.061317	1.634873	7.213752	-4.248208	-1.450928	0.835449	0.913330
25784		-1.392367	-3.347869	-5.746669	0.138100	6.976452	-4.657969	-1.557129	0.767090	0.815430
25785		0.583534	-2.130789	-5.088799	-0.824958	7.117990	-5.051908	-1.651611	0.674805	0.707764
25786		1.986383	-1.209487	-5.223051	-2.023429	7.038230	-5.161337	-1.743408	0.575684	0.598389
25787		3.951475	-2.372788	-5.591320	-2.166534	6.829202	-4.922956	-1.808838	0.479004	0.489014
25788		6.439117	-5.886437	-6.812175	-1.703722	6.830644	-4.632876	-1.868164	0.391113	0.366455
25789		8.405594	-10.609357	-7.096402	-0.427278	6.825404	-4.290172	-1.910156	0.314453	0.239746
25790		9.477030	-13.416444	-4.657581	0.160396	6.236865	-4.194674	-1.940674	0.230957	0.121582
25791		10.390301	-11.896638	-5.184168	-0.150611	5.294545	-4.037452	-1.954102	0.158691	0.026611
25792		11.513992	-6.784916	-6.051712	0.135688	4.296236	-2.904055	-1.961670	0.112549	-0.058838
25793		10.593310	-4.425791	-3.045369	0.823924	3.435107	-1.821893	-1.960449	0.075439	-0.121094
25794		6.022543	-9.054077	-4.119599	1.572145	2.592991	-1.795197	-1.961670	0.042480	-0.166504
25795		0.888200	-11.851879	-5.799449	2.162798	1.618867	-1.212092	-1.965576	0.024902	-0.191406
25796		-3.880780	-12.514159	-8.636660	1.714691	0.452265	-0.053535	-1.963623	0.029297	-0.191650
25797		-5.261229	-9.803593	-10.091633	1.148236	-0.641509	1.126205	-1.964600	0.060059	-0.173584
25798		-3.631140	-4.681906	-10.081863	1.262608	-1.897126	2.110219	-1.968018	0.104004	-0.130615
25799		2.252263	-3.241942	-12.041080	1.702062	-2.966349	2.704087	-1.968018	0.169678	-0.071289
25800		4.125390	-8.318399	-5.520793	2.987192	-2.659684	2.699963	-1.967529	0.229004	-0.013916
25801		9.094611	-15.665659	9.369397	5.731334	-3.168563	2.806545	-1.956543	0.294922	0.041260
25802		22.377049	-14.595967	0.556644	3.984033	-4.621991	3.857592	-1.932861	0.389160	0.133545
25803		39.684894	-4.368484	-7.900747	0.653089	-3.777197	4.964536	-1.905518	0.492432	0.185303
25804		28.084635	8.320754	-10.952507	1.744770	-1.835957	3.909480	-1.878906	0.560791	0.206543
25805		12.303578	5.097229	-18.959513	-3.081820	-1.134848	3.364707	-1.843018	0.615723	0.270752
25806		0.067755	-4.163172	-23.387898	-3.287553	-2.744126	5.268776	-1.786865	0.721191	0.324707
25807		-7.490528	-10.578809	-15.001562	3.589330	-1.679736	5.281717	-1.741943	0.820313	0.321777
25808		-0.941747	-12.563559	-1.534389	4.584931	-2.415740	2.648842	-1.705811	0.866455	0.360840
25809		11.733154	-17.395563	-6.226839	-0.377322	-3.647359	2.834330	-1.651855	0.912598	0.431396
25810		13.604048	-23.548017	-10.345724	-1.007312	-1.447299	2.602047	-1.613281	0.950195	0.445313
25811		6.411787	-25.468580	-7.370313	0.913391	-0.335689	1.913305	-1.581055	0.976563	0.442627
25812		5.430721	-21.604085	-3.298721	-0.054727	-1.170665	1.528461	-1.546143	0.987793	0.484619
25813		14.660032	-12.120450	-5.697095	-1.452061	-2.190330	0.727132	-1.516846	0.979004	0.529541
25814		24.836861	-3.172395	-9.916427	-0.985540	-1.534822	0.080752	-1.485352	0.965820	0.553467
25815		22.702335	-3.954501	-8.363872	-0.624454	-0.290005	0.189921	-1.465576	0.963623	0.557861
25816		17.063418	-13.028569	-6.795840	-1.059786	-0.201464	1.083305	-1.434082	0.954834	0.575195
25817		20.794976	-15.412062	-6.464234	-1.005443	-0.537571	0.931608	-1.407227	0.944092	0.590576
25818		24.642607	-6.386131	-6.762381	-1.207450	-0.395882	0.116399	-1.391113	0.928711	0.601807
25819		25.925730	8.101192	-5.115947	-0.665114	-0.298914	0.584932	-1.366699	0.919922	0.604248
25820		21.698274	15.402976	-2.990967	-0.877453	0.051945	1.202375	-1.339600	0.906738	0.609131
25821		17.909763	7.934200	-2.200878	-1.680512	0.158708	0.834132	-1.323730	0.895752	0.628662
25822		16.503220	3.707137	-0.136570	-1.617233	0.206890	0.978186	-1.305664	0.887207	0.633057
25823		14.153725	5.133308	2.087654	-1.335838	0.355300	0.949788	-1.294189	0.871826	0.629395
25824		12.306499	5.375182	5.838422	-0.925029	0.579593	0.594747	-1.285156	0.865234	0.627686
25825		9.876671	5.286138	8.534796	-0.462979	0.391470	0.304203	-1.273438	0.847656	0.619873
25826		8.110271	4.742811	9.713378	-0.270017	-0.236615	0.113714	-1.266846	0.845459	0.624023
25827		6.479797	2.967949	8.455772	-0.245778	-0.751511	0.559663	-1.253174	0.838867	0.628662
25828		4.945777	1.269276	7.272036	0.187995	-1.177788	1.257392	-1.229492	0.852295	0.641113
25829		3.917150	4.114668	8.022295	0.832289	-1.598412	1.873253	-1.195068	0.880859	0.653076
25830		4.086437	9.806555	9.409636	1.286793	-2.014391	2.347801	-1.156250	0.913818	0.662842
25831		4.978879	13.433788	9.999529	0.888655	-2.482257	2.737029	-1.110840	0.944824	0.687500
25832		6.115598	12.213592	9.191885	0.077021	-2.960297	3.042083	-1.061035	0.973389	0.722656
25833		7.701397	10.393440	8.008594	-0.404428	-3.377054	3.214971	-1.000244	1.006592	0.764404
25834		9.331297	9.493846	7.123264	-0.675655	-3.788302	3.292803	-0.932373	1.030762	0.814697
25835		10.930734	9.152240	5.661534	-0.944721	-4.128929	3.293122	-0.871338	1.061768	0.862793
25836		12.341035	8.692781	3.822885	-1.288150	-4.270193	3.242217	-0.792236	1.077393	0.917725
25837		13.045534	6.722118	2.311849	-1.623675	-4.227052	3.177629	-0.721924	1.094971	0.970459
25838		12.944189	3.700058	0.740874	-2.005375	-4.269642	3.104358	-0.642578	1.104004	1.027832
25839		12.497022	1.444347	-0.206199	-2.244047	-4.352222	3.037268	-0.563232	1.110596	1.083008
25840		11.836995	-0.112679	-0.108874	-2.578231	-4.564806	2.786955	-0.478516	1.095459	1.151611
25841		11.938609	-1.859993	-0.845989	-3.747096	-4.979035	2.220296	-0.391113	1.069092	1.233398
25842		13.698927	-3.787691	-4.502594	-6.065347	-5.259788	1.429568	-0.317383	0.994385	1.335693
25843		18.038115	-7.630735	-11.391892	-9.056276	-4.981041	0.701273	-0.249023	0.880127	1.447754
25844		24.700596	-14.646978	-17.920143	-8.383608	-2.984289	0.430187	-0.214355	0.774658	1.523193
25845		19.526388	-13.812295	-15.406551	-6.647192	-1.538997	0.458425	-0.193359	0.688721	1.587402
25846		11.165688	-8.919819	-18.283818	-6.094267	-0.607861	-0.188906	-0.190674	0.611816	1.630127
25847		4.779062	-2.122369	-18.109721	-1.654092	-1.705926	-0.634173	-0.161865	0.616211	1.645020
25848		4.186170	0.896758	-17.281299	1.248685	-1.349985	-1.093104	-0.175781	0.633789	1.654785
25849		4.870982	-3.865866	-18.035885	0.888567	1.856394	-1.620241	-0.231934	0.657715	1.653809
25850		4.424246	-8.708030	-16.389540	1.669265	3.302657	-1.748345	-0.316895	0.692627	1.647949
25851		3.408194	-10.393292	-14.384012	1.985043	4.277397	-1.862502	-0.404541	0.727539	1.623047
25852		2.217058	-10.442923	-12.289816	2.134996	4.757029	-1.932996	-0.511963	0.764648	1.589600
25853		0.930704	-9.150963	-10.886571	2.040501	5.148705	-2.019278	-0.620605	0.777588	1.550537
25854		-0.321280	-7.386346	-9.798102	1.711998	5.873799	-2.293424	-0.751465	0.788086	1.498535
25855		-1.151798	-5.827818	-9.834827	1.488417	6.428849	-2.553952	-0.875732	0.794434	1.438477
25856		-0.501461	-5.618218	-11.751570	2.239497	7.563518	-2.780297	-1.020020	0.805176	1.337891
25857		-0.538996	-6.446095	-9.080295	3.940831	8.521395	-2.892174	-1.165039	0.833496	1.209229
25858		-2.820975	-6.352696	-6.120116	5.139903	8.489402	-3.198538	-1.296143	0.846680	1.059814
25859		-3.855316	-5.399525	-5.108418	4.382924	8.164228	-3.805375	-1.417725	0.835449	0.921875
25860		-3.215451	-4.761032	-5.263469	2.279371	7.579223	-4.565573	-1.529053	0.782715	0.796143
25861		-1.542158	-4.376180	-5.282930	0.858105	7.354027	-5.207959	-1.630371	0.701172	0.677490
25862		-1.288076	-1.286596	-4.051172	-0.914778	7.285817	-5.555151	-1.718018	0.600098	0.559570
25863		0.180038	-0.544396	-3.900095	-2.174129	6.654310	-5.564423	-1.785400	0.496826	0.463135
25864		4.456062	-4.776843	-8.464757	-2.302714	6.270369	-5.281610	-1.841797	0.395752	0.358154
25865		7.495759	-10.144623	-7.417971	-0.520852	6.565867	-4.832158	-1.881348	0.314453	0.233643
25866		10.453977	-14.338726	-4.168491	1.854525	5.942316	-4.613319	-1.905518	0.233398	0.119629
25867		14.392932	-15.825564	-3.893884	2.231378	5.002722	-4.270978	-1.923096	0.156494	0.020508
25868		13.864742	-5.370630	-4.665881	1.026016	4.074758	-2.985051	-1.928223	0.106201	-0.054199
25869		11.309482	9.320767	-1.984389	1.117869	3.601077	-1.989385	-1.931396	0.066650	-0.118652
25870		5.663683	-6.761271	-2.679710	1.188836	2.684682	-2.087078	-1.932373	0.027344	-0.170166
25871		0.093929	-12.376580	-5.254676	2.311840	1.787536	-1.480979	-1.927246	0.000977	-0.198975
25872		-3.386024	-15.887091	-7.023863	2.537382	0.313887	-0.144373	-1.920654	0.005371	-0.186279
25873		-4.032331	-11.160497	-7.168263	1.932488	-0.831880	1.135671	-1.928223	0.033936	-0.166260
25874		-3.383564	-2.561311	-7.547866	1.468596	-1.872221	2.182823	-1.929932	0.088623	-0.123535
25875		0.503184	1.060347	-7.927612	1.633338	-2.979436	2.914484	-1.929688	0.147949	-0.061768
25876		5.421345	-4.132604	-10.040319	1.736048	-3.383987	3.172015	-1.927490	0.222412	0.001221
25877		7.416984	-11.612196	4.635349	3.593808	-2.675442	3.063563	-1.916504	0.288330	0.045898
25878		14.961250	-13.924283	13.824095	6.470145	-3.200476	3.344477	-1.901611	0.371826	0.100342
25879		33.040941	-16.293563	-4.241490	0.318351	-4.290159	4.533283	-1.864746	0.468506	0.184326
25880		39.126139	-9.060029	-15.975483	-0.304042	-2.644149	5.808171	-1.835205	0.569580	0.210693
25881		12.787989	15.173055	-12.384609	0.415493	-0.316116	4.256006	-1.802246	0.642334	0.231934
25882		2.082092	9.210603	-23.914405	-3.614818	-3.124743	3.762913	-1.750977	0.703857	0.327637
25883		1.218664	-3.450621	-18.777693	0.948089	-3.166932	4.536866	-1.712402	0.800537	0.339600
25884		-3.994537	-16.462666	-8.226776	5.179110	-0.776198	3.909106	-1.670410	0.866699	0.327148
25885		0.975665	-29.148501	-3.604058	1.535429	-2.744242	2.472731	-1.625244	0.908447	0.393799
25886		11.097219	-28.446922	-5.879348	-1.713818	-2.749087	2.821383	-1.577881	0.943604	0.443604
25887		11.008885	-15.412011	-9.631660	0.159846	-1.236013	1.883737	-1.541260	0.972412	0.445068
25888		9.451941	-8.983016	-4.328509	0.925043	-1.009603	1.798632	-1.502441	1.003174	0.471680
25889		9.948894	-12.669720	-5.311826	-0.762840	-1.512896	1.571379	-1.462646	1.005615	0.501465
25890		15.650721	-12.287080	-5.859790	-0.951625	-1.379517	0.969119	-1.436035	1.007813	0.533447
25891		17.782143	-9.760069	-8.149805	-1.163599	-1.001963	0.549585	-1.405029	1.001221	0.552734
25892		16.914483	-9.891550	-7.780338	-0.791698	-0.616464	0.538659	-1.371338	0.992432	0.568115
25893		18.578474	-13.038641	-6.840755	-0.930195	-0.689515	0.467244	-1.348877	0.981689	0.585449
25894		25.645774	-13.011897	-8.102439	-0.997881	-0.808625	-0.101825	-1.328125	0.957520	0.605469
25895		25.637368	-6.650928	-6.979529	-1.261447	-0.134019	-0.217109	-1.320557	0.928955	0.608398
25896		22.453705	4.396006	-6.346187	-1.240500	-0.380809	0.572408	-1.293701	0.922363	0.625732
25897		20.519055	11.115973	-5.298095	-1.004383	-0.398318	1.088390	-1.266602	0.904785	0.630615
25898		18.262441	8.001388	-3.284975	-1.222132	-0.173549	0.866253	-1.248779	0.898193	0.637451
25899		16.959009	4.915595	-0.920719	-1.134182	-0.078683	0.895719	-1.232666	0.883057	0.637939
25900		15.252255	6.218349	1.702060	-1.016852	0.114970	0.781594	-1.223389	0.872070	0.646729
25901		14.406302	7.700426	4.922425	-1.033159	0.547858	0.510758	-1.207520	0.858887	0.645264
25902		13.698401	7.270634	7.343975	-0.912929	0.888167	0.397719	-1.204834	0.843506	0.630859
25903		11.279103	6.543103	9.139081	-0.484240	0.573402	0.446618	-1.200195	0.834717	0.624756
25904		7.443213	5.770642	10.439709	-0.088022	-0.278102	0.821733	-1.182617	0.843506	0.631104
25905		4.848455	3.498963	9.546057	0.204109	-1.075216	1.416168	-1.167480	0.847900	0.635254
25906		2.544055	4.159416	9.760653	0.875910	-1.560897	1.909808	-1.132813	0.872314	0.649414
25907		1.886296	9.261899	10.495316	1.387388	-2.132767	2.281385	-1.096436	0.905273	0.652832
25908		4.171605	12.589961	10.991373	1.246350	-2.815657	2.677111	-1.046631	0.936279	0.679688
25909		7.600798	12.685398	9.688777	0.810352	-3.434050	3.013864	-0.986084	0.976074	0.708252
25910		9.931353	11.961430	8.196836	0.514297	-3.906464	3.265522	-0.925293	1.009033	0.745605
25911		11.502178	11.941124	6.925884	0.229673	-4.286395	3.369297	-0.862305	1.046631	0.784912
25912		13.672762	12.236711	5.425318	-0.184513	-4.481702	3.401709	-0.785889	1.077637	0.824707
25913		15.829763	12.622416	3.202938	-0.916952	-4.510457	3.461294	-0.713623	1.101807	0.879395
25914		16.481267	11.275507	1.141678	-1.833851	-4.317567	3.533992	-0.634766	1.121826	0.938477
25915		14.336203	8.024018	0.243849	-2.789150	-4.152221	3.462544	-0.557129	1.117432	1.000244
25916		12.090205	4.031226	0.010412	-3.769347	-4.339761	3.091756	-0.478760	1.097900	1.083984
25917		11.833189	0.243399	-1.126862	-5.152974	-4.724774	2.464285	-0.404297	1.062744	1.174316
25918		13.513822	-2.243445	-4.441576	-7.509063	-4.774040	1.761203	-0.325928	0.977051	1.289551
25919		17.546755	-6.185677	-12.164320	-10.612571	-4.094327	1.156529	-0.267822	0.844971	1.412598
25920		23.358440	-15.009737	-18.186836	-9.124920	-1.759417	0.811735	-0.241943	0.741699	1.490234
25921		16.782269	-15.202224	-14.651038	-6.106325	-1.228446	0.566273	-0.228271	0.671143	1.545410
25922		8.594857	-10.584018	-15.820595	-4.740368	-1.383589	0.041489	-0.212891	0.614014	1.591797
25923		5.564366	-6.593453	-20.970543	-2.156788	-0.993382	-0.628358	-0.208252	0.609619	1.611084
25924		4.216167	-4.127212	-20.845215	1.025074	-0.198619	-1.140262	-0.224609	0.635986	1.614258
25925		3.446959	-5.309851	-18.956669	2.322429	1.688114	-1.738678	-0.288086	0.681885	1.599854
25926		2.680293	-7.846651	-16.506100	3.408242	3.008813	-2.325255	-0.365479	0.745361	1.573975
25927		2.932059	-8.217791	-13.523633	4.117777	3.770541	-2.594114	-0.455811	0.802246	1.535645
25928		2.562848	-7.199182	-11.169468	3.847733	4.650001	-2.626588	-0.563721	0.845947	1.482910
25929		1.077987	-5.579409	-9.199490	3.276093	5.481663	-2.687054	-0.682129	0.880859	1.424072
25930		-0.995073	-3.979925	-8.032333	2.986188	6.110124	-2.892596	-0.811279	0.904785	1.356934
25931		-1.840102	-3.456289	-7.657723	3.011292	6.508727	-3.318795	-0.935791	0.917725	1.279785
25932		-1.104631	-5.495415	-9.694017	2.874575	7.132002	-3.752511	-1.079834	0.921875	1.170898
25933		-0.189596	-7.817988	-5.960482	3.830369	8.389633	-3.824718	-1.217041	0.921631	1.045166
25934		-3.194209	-7.225875	-2.882200	3.603041	7.825670	-4.276736	-1.340576	0.899414	0.920410
25935		-3.450485	-6.586452	-4.828386	1.419197	6.711136	-5.090464	-1.453613	0.842285	0.820068
25936		-0.317198	-6.745858	-5.146297	0.487377	6.850924	-5.584605	-1.563965	0.760742	0.718262
25937		0.810263	-4.564866	-3.514301	-0.893408	6.901173	-6.001769	-1.655273	0.648438	0.621826
25938		1.216303	-1.632633	-2.675928	-2.670435	6.451923	-6.068938	-1.742432	0.538574	0.533936
25939		4.823358	-2.608437	-6.925090	-3.559183	6.147201	-5.818028	-1.800537	0.424072	0.435791
25940		8.706003	-7.469131	-11.792974	-2.386484	6.646729	-5.286613	-1.852783	0.321045	0.309570
25941		11.642546	-13.432440	-5.362209	1.534483	6.834197	-4.788654	-1.892334	0.239746	0.187256
25942		15.731533	-17.193207	-4.492069	2.096756	5.447199	-4.565816	-1.912109	0.167480	0.087891
25943		17.948186	-18.450803	-5.944198	1.611467	4.372102	-2.958358	-1.917480	0.123535	0.000244
25944		9.771920	4.394069	-4.975638	1.064772	4.042554	-1.603253	-1.923096	0.088623	-0.072754
25945		4.183929	-2.743824	-1.687016	0.967885	2.758681	-1.828891	-1.922363	0.057861	-0.120361
25946		-0.494371	-7.335774	-6.904708	0.997410	1.830211	-1.583698	-1.919189	0.029541	-0.155273
25947		-3.019856	-12.699475	-8.656106	1.719329	0.297794	-0.242412	-1.921387	0.031738	-0.142822
25948		-2.411663	-16.059578	-9.114871	2.178938	-1.139920	1.064936	-1.924561	0.062256	-0.118408
25949		-0.335416	-13.129167	-8.424222	2.106845	-1.895318	1.974012	-1.923828	0.104004	-0.079590
25950		4.312708	-10.399604	-7.292786	2.371499	-3.275568	2.826641	-1.916992	0.169678	0.000977
25951		12.187942	-15.507056	-2.626481	3.682799	-4.586480	3.834867	-1.908936	0.268555	0.093018
25952		21.077808	-15.337211	-2.220806	4.125776	-4.654924	5.376748	-1.884033	0.380615	0.161621
25953		32.326506	20.162313	-0.454197	3.459589	-3.600584	5.109529	-1.847412	0.475098	0.207520
25954		29.095589	11.350653	-0.210229	-0.520712	-2.135270	4.096567	-1.820801	0.543213	0.251953
25955		10.192950	-6.570789	-19.241185	-3.417799	-1.750523	4.847506	-1.779297	0.624512	0.304688
25956		-12.197700	-11.312990	-23.141334	-3.494264	-0.622863	5.384767	-1.734131	0.723633	0.314453
25957		-25.294637	-23.965370	-13.223462	3.966914	-1.636303	3.830556	-1.694336	0.791992	0.339844
25958		0.509347	-19.773754	-5.515214	2.260718	-4.117587	2.882122	-1.641113	0.853516	0.403809
25959		11.882968	-14.602317	-7.147768	0.180781	-3.034396	3.422327	-1.593994	0.899658	0.451172
25960		15.927314	-9.748168	-9.982931	-0.917013	-1.750575	1.516582	-1.570068	0.915039	0.489014
25961		16.799602	-11.321533	-11.200768	0.158642	-1.247236	1.619767	-1.529297	0.948242	0.496582
25962		11.863943	-18.887310	-8.961348	1.051346	-0.664774	2.320547	-1.485840	0.972412	0.504639
25963		11.890064	-23.525862	-6.826338	-0.125654	-0.950313	1.217904	-1.459473	0.979004	0.523682
25964		16.734465	-19.200023	-8.253651	-0.762314	-0.898165	0.441655	-1.428223	0.972656	0.545166
25965		20.311526	-11.254077	-8.471011	-0.342448	-0.710434	0.601371	-1.404053	0.977051	0.555664
25966		18.437038	-8.666959	-9.364855	-0.592827	-0.300684	0.976078	-1.372803	0.968262	0.558350
25967		14.053953	-10.668658	-8.479097	-0.585302	-0.013042	0.858882	-1.346191	0.964111	0.562744
25968		16.452805	-11.868333	-8.012684	-0.904348	-0.258822	-0.214722	-1.325195	0.931152	0.580811
25969		24.670896	-6.935963	-7.365100	-0.749192	-0.261449	-1.327729	-1.323730	0.891602	0.575684
25970		31.218755	5.664384	-6.070683	-0.335021	-0.135529	-1.088763	-1.309570	0.865234	0.574707
25971		28.238740	16.856739	-2.302667	0.023223	0.242173	1.073748	-1.285156	0.863037	0.570557
25972		20.029364	10.441195	0.778085	-1.362955	0.544922	1.109973	-1.271484	0.850098	0.571045
25973		19.598347	5.737371	2.021929	-1.900026	0.659621	0.848447	-1.260010	0.839111	0.573486
25974		16.249919	10.313083	5.647137	-1.784423	1.207945	0.699800	-1.254639	0.810547	0.568115
25975		12.655898	11.843723	8.349203	-1.774701	1.174412	0.067120	-1.253906	0.786377	0.558350
25976		9.283671	10.739175	10.321825	-1.283380	0.725830	-0.086520	-1.253418	0.775391	0.558838
25977		4.342467	9.403142	10.412531	-0.808625	-0.080784	0.349764	-1.241943	0.757813	0.565674
25978		1.525678	5.746061	10.114384	-0.311921	-1.142760	1.206535	-1.215576	0.768799	0.580322
25979		-0.299603	4.224251	10.098039	0.262812	-1.843721	1.971165	-1.187744	0.792969	0.594482
25980		-0.308576	5.918881	9.658562	0.703304	-2.437454	2.515384	-1.153564	0.826172	0.619141
25981		2.287450	7.486578	8.145684	0.948208	-2.929181	2.867640	-1.101318	0.856934	0.643799
25982		5.654074	8.561263	6.688835	0.926338	-3.352199	3.026472	-1.056396	0.896729	0.668213
25983		7.679119	11.268407	6.490469	0.748369	-3.646073	3.092914	-1.002441	0.936279	0.705322
25984		9.596078	15.029351	6.994880	0.348228	-4.056193	3.138407	-0.932617	0.969482	0.751221
25985		11.832922	17.185655	6.920941	-0.371350	-4.312635	3.281422	-0.871582	0.998291	0.790771
25986		13.500752	17.475302	6.993402	-1.182450	-4.255178	3.586934	-0.799316	1.022461	0.851807
25987		13.261259	13.314276	5.041550	-2.766632	-4.136524	3.891287	-0.719971	1.029297	0.919678
25988		11.923800	8.917788	1.912718	-3.950965	-4.045663	3.897865	-0.640137	1.031494	0.994141
25989		11.313367	5.365873	0.481915	-4.446855	-4.022672	3.565262	-0.559814	1.011719	1.075684
25990		11.419857	1.391222	0.861712	-4.605820	-4.072335	3.096387	-0.485596	0.981201	1.153320
25991		12.675837	-3.180718	-0.689347	-5.431349	-4.359523	2.461432	-0.415039	0.932861	1.254639
25992		16.345241	-7.133929	-4.874675	-7.320430	-4.206071	1.807806	-0.338867	0.849365	1.346680
25993		22.139537	-13.084482	-12.282169	-9.291022	-2.994040	1.322337	-0.297607	0.745850	1.432617
25994		21.875965	-18.246639	-15.398555	-6.274685	-1.711352	0.983613	-0.266357	0.682129	1.485596
25995		14.825377	-14.640478	-13.602429	-3.789300	-1.884964	0.522744	-0.240479	0.635986	1.523193
25996		10.474204	-10.976565	-13.758378	-2.539227	-1.829370	-0.704156	-0.217285	0.614014	1.553711
25997		9.340645	-7.053756	-17.183283	-0.593877	-1.896136	-1.622696	-0.213135	0.622803	1.581055
25998		9.382940	-4.369979	-18.654907	1.135825	-0.871750	-1.836278	-0.229492	0.646973	1.575928
25999		7.986309	-5.951687	-17.780025	1.625296	1.025629	-1.804514	-0.263916	0.681885	1.576660
26000		6.095205	-9.057895	-16.269524	2.226204	2.227455	-1.960907	-0.333740	0.721436	1.562256
26001		4.818326	-10.560596	-14.683598	2.660102	2.986035	-2.208652	-0.412598	0.767334	1.543457
26002		3.715344	-9.760746	-12.714052	2.502613	3.751014	-2.417567	-0.502197	0.797852	1.510254
26003		2.157699	-8.044993	-10.990204	2.170035	4.529283	-2.686132	-0.606689	0.815186	1.475342
26004		0.863215	-6.997010	-10.398795	2.196445	5.255290	-3.023173	-0.726563	0.827881	1.421143
26005		0.145930	-7.278248	-10.291196	2.709944	5.917025	-3.336982	-0.849365	0.856201	1.356201
26006		0.082381	-7.757366	-10.957689	3.124206	6.538764	-3.623836	-0.987061	0.866943	1.270508
26007		1.713407	-9.081072	-11.013631	3.540348	8.084221	-3.842600	-1.135742	0.873291	1.134033
26008		-0.541232	-7.738709	-5.398457	4.213759	9.014227	-3.976722	-1.275146	0.866455	1.002197
26009		-4.629770	-5.084309	-6.059952	2.283921	7.724694	-4.442784	-1.395264	0.820313	0.890869
26010		-3.176967	-4.037974	-7.655585	0.482076	7.227652	-4.972389	-1.497070	0.751953	0.780273
26011		-0.762028	-3.029506	-7.119311	-0.369902	7.508998	-5.404635	-1.604736	0.661865	0.668213
26012		-1.225010	-2.061161	-5.410528	-1.803797	7.502897	-5.647314	-1.687744	0.556152	0.554932
26013		0.429711	-2.752913	-7.516158	-2.563986	6.980808	-5.445636	-1.752930	0.455078	0.449707
26014		4.636918	-6.470700	-9.824640	-1.904945	6.856774	-5.028091	-1.809814	0.362793	0.333984
26015		7.848911	-11.449063	-8.520967	0.161449	6.813101	-4.700459	-1.851318	0.275146	0.203125
26016		11.487041	-14.836327	-5.800692	1.320132	6.082992	-4.513435	-1.873535	0.200439	0.093262
26017		14.029112	-15.309277	-4.664259	1.047402	4.993501	-3.834351	-1.880371	0.134766	0.000244
26018		12.781422	-6.157196	-5.997424	0.441233	3.740272	-2.451998	-1.881592	0.102051	-0.070801
26019		8.951259	3.119161	-3.270096	0.784202	3.306534	-1.748281	-1.882568	0.055908	-0.128418
26020		3.961016	-6.753085	-5.671097	0.808081	2.391289	-2.033303	-1.883545	0.020752	-0.169678
26021		0.189229	-12.166389	-7.316858	1.566772	1.432586	-1.261983	-1.883301	0.005615	-0.198730
26022		-2.463703	-16.662146	-9.097635	2.112182	-0.012630	0.175103	-1.879150	0.016357	-0.180176
26023		-3.159723	-13.774945	-9.722475	1.740644	-1.092957	1.327979	-1.875732	0.049316	-0.153564
26024		-2.248576	-7.461108	-9.265109	0.989814	-1.862142	2.161969	-1.886230	0.099854	-0.115234
26025		1.484077	-3.069976	-9.143571	0.811051	-2.807985	2.994786	-1.874756	0.161377	-0.053467
26026		4.961543	-4.360997	-9.717401	1.518540	-3.313429	3.317957	-1.875000	0.233643	0.011963
26027		9.509733	-9.519433	6.626249	4.719843	-2.866066	3.213483	-1.854980	0.297363	0.052246
26028		19.834514	-1.699055	11.345325	6.048568	-3.575881	3.339252	-1.842041	0.376465	0.109131
26029		43.249924	0.658777	-3.979435	0.793694	-4.435492	3.773502	-1.817871	0.455566	0.191162
26030		32.969839	-3.092672	-12.253392	-0.175459	-2.144784	4.666872	-1.782959	0.532471	0.216553
26031		9.080775	4.155665	-10.875236	-0.873866	-0.970617	4.565099	-1.743896	0.618164	0.256348
26032		-1.312702	0.578896	-22.948283	-2.980004	-2.796946	4.271572	-1.705811	0.673096	0.322510
26033		-12.578972	-12.395160	-22.539100	2.369320	-1.823127	4.275338	-1.662598	0.763428	0.300781
26034		-12.481254	-19.735310	-5.701214	5.677609	-0.915795	3.689389	-1.620850	0.831787	0.307373
26035		4.025654	-24.280588	-4.826789	0.076423	-3.773409	2.762611	-1.573242	0.869141	0.382568
26036		14.879277	-19.665883	-9.629196	-2.041205	-2.088940	1.980736	-1.531738	0.888916	0.426514
26037		15.951323	-9.693714	-8.844839	0.184498	-1.052818	1.295047	-1.501465	0.911133	0.442871
26038		16.330889	-5.801309	-6.596004	0.149549	-1.315350	1.414655	-1.466797	0.926514	0.463867
26039		17.732952	-9.885648	-8.009313	-0.689852	-1.288547	0.964542	-1.437988	0.926514	0.487305
26040		18.490387	-14.504452	-7.035379	-0.974443	-0.664103	0.993123	-1.409180	0.930908	0.504150
26041		16.750213	-16.193988	-6.133015	-0.945594	-0.504162	1.728025	-1.371826	0.937744	0.525391
26042		16.783647	-17.862697	-5.007017	-0.846424	-0.526200	1.413447	-1.343262	0.937744	0.536133
26043		17.182001	-14.824100	-4.116465	-0.941228	-0.444736	0.676168	-1.320557	0.926758	0.549316
26044		20.854618	-6.036074	-4.258559	-1.098996	-0.674292	-0.331853	-1.297363	0.895996	0.569336
26045		26.326098	4.167238	-4.709926	-0.868616	-0.504690	-0.661019	-1.283203	0.867432	0.572510
26046		25.229028	8.725610	-3.807452	-0.732619	-0.167341	0.564641	-1.263184	0.863281	0.574951
26047		21.049726	5.893445	-2.137132	-0.984803	0.001024	1.392702	-1.240967	0.863281	0.581299
26048		19.138213	4.042623	0.583964	-0.887508	0.163948	1.362364	-1.223145	0.854492	0.575439
26049		17.180343	5.022739	2.772480	-1.003499	0.286196	1.055062	-1.207275	0.847900	0.577881
26050		16.224550	7.450875	5.809724	-0.760570	0.605997	0.623902	-1.209229	0.834717	0.567627
26051		15.759502	9.652268	7.856114	-0.742466	0.613333	0.322652	-1.197510	0.817383	0.563965
26052		13.657708	10.171395	8.884752	-0.874639	0.390085	0.404420	-1.186523	0.815186	0.557861
26053		7.263542	8.464626	8.510930	-0.923792	-0.078204	0.956771	-1.177490	0.810791	0.570801
26054		1.769195	8.403957	8.584504	-0.622053	-0.864135	1.649941	-1.151123	0.819580	0.583252
26055		1.063247	10.296370	8.721698	-0.480733	-1.491672	2.114497	-1.122803	0.834961	0.599854
26056		2.034753	10.735317	9.237472	-0.623580	-2.013373	2.460128	-1.090576	0.859375	0.628906
26057		3.763165	9.657515	8.971217	-0.728829	-2.547384	2.776494	-1.042725	0.885742	0.664307
26058		6.504985	8.133690	8.033724	-0.784128	-3.087933	2.996594	-0.994629	0.905518	0.704102
26059		8.611359	8.222269	7.503605	-0.801721	-3.643836	3.193015	-0.935791	0.932129	0.750244
26060		10.362363	8.819848	6.324483	-0.852780	-4.196257	3.412785	-0.872559	0.958496	0.800537
26061		11.415225	9.489760	4.747732	-0.997872	-4.564246	3.555085	-0.800293	0.985107	0.853027
26062		12.583586	9.935367	3.242573	-1.286133	-4.634866	3.560799	-0.725830	1.007324	0.905518
26063		13.085950	9.783991	2.166946	-1.615519	-4.493363	3.502916	-0.646484	1.016113	0.960693
26064		11.870097	8.192545	1.403861	-2.077001	-4.278243	3.351998	-0.571533	1.027344	1.013672
26065		11.026187	5.259419	1.064507	-2.446359	-4.246673	3.054589	-0.500732	1.027344	1.062744
26066		10.692272	1.859376	1.625244	-3.117942	-4.490348	2.677757	-0.415771	1.010010	1.135742
26067		11.540677	-2.538200	-0.478604	-4.718841	-5.010897	2.011296	-0.339111	0.972656	1.219971
26068		14.890164	-5.921097	-6.365051	-7.910933	-5.223527	1.245800	-0.259766	0.856201	1.329834
26069		23.761008	-14.421254	-17.923165	-9.989140	-3.859339	0.737108	-0.216064	0.750732	1.413818
26070		24.468526	-20.254966	-18.539655	-5.964770	-1.252736	0.524874	-0.193848	0.688965	1.470947
26071		13.442179	-15.771386	-13.799725	-3.426436	-1.709272	0.056225	-0.168213	0.656250	1.499756
26072		8.222886	-10.653900	-14.164636	-1.754602	-2.125224	-1.157313	-0.150146	0.643066	1.525635
26073		7.149860	-4.863893	-16.935429	0.676455	-2.332813	-1.780719	-0.137695	0.667236	1.529053
26074		6.198111	-2.484888	-16.767152	1.905445	-0.896619	-1.719492	-0.147705	0.706787	1.534180
26075		5.764230	-5.904523	-16.974221	1.703287	1.592861	-1.801105	-0.210693	0.739502	1.526367
26076		4.455168	-9.232521	-15.196813	2.022183	3.222106	-1.941335	-0.293945	0.776611	1.507813
26077		2.885153	-10.382006	-12.975327	2.479502	3.701897	-2.043366	-0.376953	0.815918	1.491211
26078		1.519810	-9.364366	-11.289897	2.348625	4.188604	-2.264786	-0.464111	0.842041	1.454102
26079		0.038510	-7.075848	-9.830658	1.886978	4.965908	-2.648902	-0.566650	0.861572	1.421143
26080		-1.667894	-5.355858	-8.856519	1.712726	5.665393	-3.090169	-0.701660	0.867676	1.371338
26081		-2.625576	-5.089846	-8.572373	2.157324	6.065504	-3.561285	-0.823730	0.876221	1.307129
26082		-1.877867	-6.828049	-11.088160	2.481204	6.427446	-3.778809	-0.954590	0.882568	1.229980
26083		0.451349	-8.759149	-10.443257	3.658941	8.261737	-3.759661	-1.099121	0.897705	1.097412
26084		-1.931800	-7.821786	-4.877869	4.793764	8.556012	-3.910229	-1.234375	0.899658	0.965332
26085		-5.024912	-3.905913	-4.757567	3.555036	7.654894	-4.577084	-1.350342	0.860107	0.841064
26086		-4.442384	-1.326339	-5.852414	1.027511	7.247177	-5.011183	-1.457031	0.800537	0.738770
26087		-2.228333	0.276707	-4.864962	-0.032321	6.997195	-5.455326	-1.560303	0.712646	0.637451
26088		-0.782980	0.230188	-3.563064	-1.645057	6.849196	-5.710537	-1.638916	0.613525	0.540527
26089		0.615282	-2.984464	-5.006402	-2.870611	6.639999	-5.726111	-1.715332	0.512451	0.439697
26090		4.413638	-7.312388	-9.851078	-2.714166	6.635280	-5.420060	-1.764893	0.406982	0.332764
26091		7.965262	-12.585588	-8.245973	-0.149333	7.061824	-4.809242	-1.815918	0.334473	0.207764
26092		11.709130	-15.333142	-5.843042	2.139869	6.329854	-4.549736	-1.844482	0.255615	0.093750
26093		16.208911	-17.554155	-5.934955	1.620299	5.334703	-3.894527	-1.853516	0.187744	-0.016113
26094		14.640400	-13.134817	-2.758963	0.505404	4.485606	-2.398133	-1.856934	0.152588	-0.089111
26095		9.664545	10.606816	-5.973965	-0.514656	3.620220	-2.054233	-1.856201	0.122070	-0.149414
26096		4.368788	-2.874137	-0.870802	-0.334572	2.599944	-1.527851	-1.857422	0.089111	-0.190674
26097		-0.633421	-9.851038	-6.397814	-0.254322	1.280450	-1.368006	-1.854492	0.069336	-0.200684
26098		-2.583111	-16.125307	-10.498783	0.518114	-0.297710	0.124865	-1.864014	0.086914	-0.192871
26099		-2.212397	-19.065997	-10.550824	1.004994	-1.245341	1.464011	-1.858643	0.126465	-0.162354
26100		-0.261267	-14.190726	-11.285501	0.874324	-1.868698	2.183477	-1.862061	0.167969	-0.121338
26101		-0.528041	-7.975835	-9.370566	1.231819	-2.468310	2.881037	-1.857422	0.233887	-0.064209
26102		6.893839	-8.248736	3.059406	3.368243	-3.932471	3.252225	-1.839600	0.299805	0.010010
26103		22.780557	0.189393	3.703489	4.358939	-4.829283	3.922390	-1.824951	0.389648	0.093994
26104		47.673432	15.127172	-3.304146	1.427941	-4.511578	4.735403	-1.794434	0.475342	0.163330
26105		34.023909	9.816204	-7.312686	-0.602835	-2.378777	4.602186	-1.759521	0.554688	0.197021
26106		7.648851	0.996797	-16.599980	-2.697828	-1.493781	4.693491	-1.720215	0.633789	0.253906
26107		-5.164200	-6.153426	-23.485131	-2.940951	-2.878697	5.026812	-1.680664	0.712891	0.308594
26108		-26.776817	-30.274197	-18.117237	5.375262	-1.304635	3.478490	-1.650146	0.783447	0.283203
26109		-5.478433	-34.159080	2.896955	4.349982	-3.213583	3.598773	-1.594971	0.858154	0.342529
26110		10.049379	-21.561445	-4.666032	-1.164303	-3.862035	3.203051	-1.549316	0.884521	0.413818
26111		16.022067	-8.291398	-11.546900	-1.196473	-1.713525	1.186648	-1.519043	0.902100	0.441162
26112		14.689877	-3.928851	-10.286223	1.562390	-1.248493	1.393205	-1.486572	0.924316	0.438477
26113		9.913403	-11.816196	-9.203945	0.382621	-1.191786	1.811246	-1.447266	0.941895	0.465576
26114		14.261101	-19.571701	-8.706435	-0.667933	-1.784871	0.687987	-1.418457	0.939697	0.503906
26115		21.699131	-16.833119	-10.433000	-0.629108	-1.196287	0.107808	-1.391602	0.930908	0.517090
26116		22.718508	-12.500142	-9.482862	-0.504937	-0.582584	0.513352	-1.364990	0.928955	0.527832
26117		19.324818	-12.958562	-8.912182	-0.720802	-0.204443	1.310852	-1.329590	0.931152	0.540527
26118		14.878582	-11.962042	-8.451747	-0.728666	-0.203915	1.334384	-1.302979	0.924805	0.541016
26119		17.618621	-8.395095	-6.927119	-0.859787	-0.485589	-0.152843	-1.286377	0.896240	0.556885
26120		26.340172	1.071667	-6.158184	-0.815264	-0.492111	-1.178967	-1.280518	0.856689	0.564453
26121		30.243020	14.757859	-3.855581	-0.088498	-0.095902	-0.101686	-1.258301	0.852295	0.556152
