// General information: 
//  MT Manager version: 2021.0.0 
//  XDA version: 2021.0.0 build 5908 rev 109668 built on 2021-04-19
// Device information: 
//  DeviceId: 00B44073
//  ProductCode: MTW2-3A7G6
//  Firmware Version: 4.4.0
//  Hardware Version: 1.1.0
// Device settings: 
//  Filter Profile: human(46.1)
//  Option Flags: Orientation Smoother Disabled, Position/Velocity Smoother Disabled, Continuous Zero Rotation Update Disabled, AHS Disabled, ICC Disabled
// Coordinate system: ENU
PacketCounter	SampleTimeFine	Acc_X	Acc_Y	Acc_Z	Gyr_X	Gyr_Y	Gyr_Z	Mag_X	Mag_Y	Mag_Z
24843		-37.479311	13.495603	-14.624988	-3.703963	-3.776264	-3.021300	1.124268	0.641846	-1.703857
24844		-38.646873	10.368669	-24.570574	-2.722376	-2.395311	-2.270398	1.074463	0.708740	-1.718018
24845		-39.350633	8.453911	-28.607691	-1.101798	-1.323413	-1.574842	1.049805	0.739014	-1.729492
24846		-38.612257	13.873914	-26.562754	0.224837	-0.471144	-1.497465	1.036377	0.750000	-1.733887
24847		-33.599758	16.384713	-24.344242	0.449960	0.464021	-1.859500	1.044434	0.769531	-1.729980
24848		-25.726620	14.579383	-21.467073	0.478246	1.832333	-1.885401	1.081299	0.778320	-1.708496
24849		-23.996080	12.291964	-16.131723	0.724517	3.162087	-1.656707	1.135742	0.770020	-1.667480
24850		-20.404421	2.992887	-14.850788	2.529572	4.112934	-0.842019	1.215576	0.716064	-1.631836
24851		-16.292781	9.048050	-8.697275	3.796733	5.045371	0.708036	1.322266	0.636230	-1.584961
24852		2.851808	-7.705496	4.158504	4.014690	4.971371	3.400795	1.446045	0.495850	-1.515625
24853		-5.360422	3.005761	30.509152	2.548006	6.021566	6.331505	1.571777	0.362061	-1.407959
24854		-56.085636	-13.040162	15.447141	3.979697	5.685334	5.256647	1.652588	0.204346	-1.319336
24855		-44.513390	8.400460	25.947803	3.471293	2.705202	3.728915	1.679199	0.109131	-1.272705
24856		-9.944383	8.801537	17.150132	3.142116	0.632827	2.335908	1.679199	0.043945	-1.250244
24857		-23.860314	18.721362	9.388329	1.442922	-0.909686	0.980824	1.649414	0.022217	-1.241455
24858		-13.122795	4.185335	10.527652	0.851450	-1.296619	0.405291	1.625977	0.009277	-1.232666
24859		-0.257564	-5.464163	13.710809	0.819073	-0.861965	0.132611	1.604492	-0.001709	-1.219971
24860		-3.544169	-0.919428	10.073489	0.784941	-0.519707	0.146405	1.585205	-0.006104	-1.202881
24861		-10.705912	1.250508	9.430750	0.670718	-0.432103	0.100187	1.572266	-0.008301	-1.187744
24862		-6.461026	-4.177342	9.697298	0.533999	-0.252441	0.056383	1.557129	-0.010254	-1.162354
24863		-8.390199	-3.238275	8.602949	0.537361	-0.162711	0.170509	1.550781	-0.021240	-1.140625
24864		-7.225809	-2.970468	10.611617	0.470193	-0.057298	0.194785	1.542480	-0.027588	-1.123535
24865		-4.453653	-4.631240	10.772266	0.483795	0.140317	0.298288	1.529541	-0.034180	-1.095703
24866		-7.886530	0.453118	11.814053	0.416237	0.305398	0.312385	1.527832	-0.044922	-1.059082
24867		-8.671932	-0.000961	11.607598	0.349098	0.627105	0.292373	1.528076	-0.049072	-1.020508
24868		-4.913616	-1.258826	14.525748	0.236573	1.243529	0.397683	1.532715	-0.055420	-0.967041
24869		-5.753782	-5.816299	16.175732	0.408537	2.438008	0.469814	1.541748	-0.068115	-0.894043
24870		-2.228630	0.499314	18.314089	-0.032439	3.792546	0.631659	1.565918	-0.074463	-0.802002
24871		1.194974	-0.374117	17.073428	-0.273133	5.025218	0.876785	1.581543	-0.084717	-0.692627
24872		-1.028482	0.820146	15.521809	-0.547368	6.142479	1.140458	1.601807	-0.099609	-0.568115
24873		-2.699618	0.390553	13.640710	-0.582479	6.970035	1.407171	1.609131	-0.118652	-0.435303
24874		-3.632403	-2.761121	10.645630	-0.331448	7.674877	1.592033	1.622803	-0.133545	-0.287354
24875		-2.437773	-4.568647	9.550621	-0.091816	8.385573	1.766723	1.611084	-0.169922	-0.137207
24876		-5.962008	-7.967809	6.240386	0.168419	9.058384	2.233430	1.586182	-0.204346	0.030029
24877		-22.401473	-5.295419	6.258821	0.578351	8.751431	2.377308	1.548096	-0.234375	0.162842
24878		-22.243979	-0.057989	5.116690	0.330235	7.476823	2.350743	1.503662	-0.262451	0.280762
24879		-16.693999	1.842066	6.472432	-0.224926	6.452383	2.265214	1.452393	-0.290527	0.357910
24880		-14.194971	0.464397	6.671349	-0.357925	5.536365	2.068365	1.407227	-0.305664	0.432861
24881		-11.369221	-1.928693	6.709112	-0.282055	5.111724	2.022731	1.360107	-0.320801	0.490479
24882		-12.909757	-2.913041	8.312484	0.296798	4.467230	2.148142	1.319336	-0.338135	0.535645
24883		-11.952651	6.864703	15.793789	0.382603	3.624442	2.370373	1.283203	-0.359863	0.563477
24884		-11.886174	7.061682	19.858129	-0.932011	2.743801	2.717422	1.249512	-0.394531	0.578857
24885		-7.700896	2.577977	18.367432	-1.653210	2.294074	3.264406	1.215820	-0.433594	0.585938
24886		-7.712962	0.128065	18.435343	-1.883263	2.042717	3.567885	1.182373	-0.477295	0.590576
24887		-7.455602	-3.688062	16.964764	-1.797324	1.807613	3.784800	1.151367	-0.527100	0.591309
24888		-7.272474	-6.197534	16.452640	-1.288148	1.594212	3.894765	1.122314	-0.570557	0.596191
24889		-7.772239	-7.297285	16.032631	-0.691715	1.398749	3.836892	1.093018	-0.607666	0.601074
24890		-7.721969	-7.816341	15.886990	-0.133676	1.224299	3.587686	1.072510	-0.653076	0.612305
24891		-8.335021	-7.689599	16.224736	0.213685	1.174187	3.188114	1.049561	-0.679199	0.631836
24892		-9.711473	-8.970397	16.444317	0.409722	1.145543	2.678522	1.034912	-0.698730	0.645020
24893		-11.879623	-10.383290	16.429950	0.699361	0.992221	2.074569	1.024902	-0.724609	0.658203
24894		-13.884032	-10.711443	15.770032	1.127842	0.523453	1.377712	1.022949	-0.731201	0.675293
24895		-13.913522	-9.739378	15.015115	1.426133	-0.125448	0.611456	1.029297	-0.731201	0.686035
24896		-12.801364	-9.344195	13.486010	1.526774	-0.717160	-0.114576	1.053223	-0.730957	0.694824
24897		-10.399314	-8.573538	11.762357	1.541924	-1.241617	-0.734361	1.085693	-0.726563	0.701416
24898		-7.945177	-7.565412	10.412911	1.433641	-1.614024	-1.281401	1.130615	-0.707031	0.694824
24899		-6.650673	-7.048902	9.065170	1.259572	-1.912142	-1.724176	1.169434	-0.693848	0.692627
24900		-6.180231	-6.131952	8.416026	1.033531	-2.239067	-2.082060	1.225342	-0.671875	0.679688
24901		-5.581076	-5.312072	8.073340	0.698365	-2.608750	-2.383539	1.281250	-0.654541	0.651855
24902		-5.275160	-4.524722	8.091332	0.304041	-3.032590	-2.614523	1.345703	-0.632813	0.611328
24903		-6.187110	-3.514041	8.608064	-0.213609	-3.486552	-2.768163	1.410156	-0.613281	0.568604
24904		-9.071867	-2.899316	9.270902	-0.823432	-4.051917	-2.882727	1.478760	-0.589355	0.506592
24905		-12.873881	-2.653945	9.758872	-1.348825	-4.917695	-2.992045	1.549805	-0.567627	0.406006
24906		-13.606176	-2.050840	9.237956	-1.704070	-5.980033	-3.157066	1.620361	-0.541748	0.288330
24907		-10.657483	-1.311864	8.392517	-1.978399	-6.798682	-3.305308	1.682129	-0.502930	0.153320
24908		-7.469361	-0.022720	7.760172	-2.315430	-7.049672	-3.418045	1.734863	-0.457520	0.005371
24909		-6.356707	0.968486	7.513270	-2.641598	-6.846225	-3.488595	1.772461	-0.414551	-0.140625
24910		-7.014323	1.433838	8.065215	-2.902389	-6.566415	-3.463944	1.800781	-0.354248	-0.295410
24911		-9.024268	2.143060	9.134330	-3.050443	-6.427841	-3.386244	1.809814	-0.293701	-0.444092
24912		-11.833867	1.762946	9.821759	-3.009437	-6.498531	-3.276517	1.809814	-0.231445	-0.594727
24913		-14.618571	1.918414	10.921042	-2.788280	-6.597711	-3.146773	1.792480	-0.166748	-0.750000
24914		-19.409008	2.986063	12.108121	-2.519417	-6.720464	-3.117513	1.761963	-0.100098	-0.900879
24915		-25.387482	4.343369	11.873984	-2.227563	-6.994732	-3.237809	1.709961	-0.031250	-1.052002
24916		-30.269151	5.199789	9.341399	-1.868039	-7.329177	-3.508115	1.635742	0.046143	-1.211914
24917		-34.434301	5.937232	4.363959	-1.341910	-7.455731	-3.788820	1.550537	0.127930	-1.363525
24918		-37.271990	8.065013	-2.670850	-0.717705	-7.341409	-3.967557	1.441895	0.192383	-1.484863
24919		-36.437305	10.969393	-10.054521	-0.482910	-6.620558	-3.761755	1.344482	0.254639	-1.589111
24920		-35.194896	12.376356	-16.239823	-0.905396	-5.172487	-3.060676	1.260254	0.308350	-1.656738
24921		-36.166633	12.205326	-21.011453	-1.507129	-3.517331	-2.082766	1.204102	0.366699	-1.698730
24922		-37.742435	14.951298	-23.530899	-1.851310	-2.026232	-1.406474	1.170166	0.409912	-1.714600
24923		-39.306692	16.717680	-23.217727	-2.041269	-0.827656	-1.275909	1.153564	0.459717	-1.715576
24924		-34.156691	7.980007	-24.921066	-1.415255	-0.296112	-1.343462	1.155029	0.487793	-1.709473
24925		-27.239585	3.022745	-28.536349	0.922618	0.794452	-0.142841	1.182129	0.451172	-1.691650
24926		-29.678966	4.428476	-34.272472	3.310657	2.421632	1.924255	1.256836	0.347412	-1.653076
24927		-13.378605	18.351626	-10.038299	2.323119	5.737628	3.507147	1.383057	0.270020	-1.550781
24928		-41.961545	-5.116041	30.105166	0.195980	6.594567	3.677567	1.487549	0.194824	-1.439697
24929		-23.737685	-18.772433	28.965007	2.586643	4.742497	3.196532	1.557617	0.108398	-1.361084
24930		-23.267257	-1.369263	26.159436	2.978112	3.568159	1.975108	1.594482	0.039307	-1.284668
24931		-11.794130	18.712658	10.957663	1.797236	1.734147	2.391769	1.595947	-0.010498	-1.245361
24932		-27.692242	7.757752	1.162761	0.637233	-0.557251	1.598111	1.572998	-0.036377	-1.230225
24933		-13.836314	4.502604	8.071867	0.649035	-0.939450	0.395778	1.553711	-0.049561	-1.221436
24934		1.432895	-4.215962	12.716182	0.658508	-0.733040	0.309842	1.536377	-0.047363	-1.202393
24935		-6.225272	-5.482985	8.685555	0.817505	-0.692498	0.250544	1.519287	-0.056152	-1.191650
24936		-14.305514	0.958316	10.807811	0.810281	-0.770569	0.181286	1.501953	-0.060303	-1.176758
24937		-5.845365	-1.347623	13.126929	0.590951	-0.424815	0.075553	1.491211	-0.060303	-1.153076
24938		-7.976268	-1.229419	12.013273	0.427852	-0.138946	0.088750	1.484863	-0.062500	-1.131836
24939		-6.172818	-0.235334	11.291573	0.269224	0.050135	0.013307	1.480469	-0.064697	-1.099609
24940		-5.089979	-1.374588	11.296037	0.158597	0.355045	-0.024690	1.476074	-0.062256	-1.065674
24941		-9.141777	-2.098425	11.466826	0.074302	0.515689	-0.047060	1.471924	-0.060059	-1.033447
24942		-7.299147	-3.185613	10.594684	0.044860	0.777727	0.005891	1.471924	-0.062256	-0.984375
24943		-5.549306	-6.483431	12.659614	0.199428	1.390031	0.097315	1.478760	-0.066406	-0.932861
24944		-4.148168	-2.047539	16.949235	0.151513	2.696204	0.302834	1.491699	-0.066162	-0.857910
24945		0.132306	-5.873378	18.525313	-0.201376	4.129774	0.515290	1.507568	-0.076660	-0.757324
24946		0.253428	-4.275746	16.204598	-0.163669	5.242575	0.875102	1.531738	-0.084961	-0.645752
24947		-1.540002	-0.478377	14.136655	-0.240374	6.279703	1.347362	1.547852	-0.108398	-0.523438
24948		-4.134414	-0.185624	12.803950	-0.171320	7.003873	1.752957	1.559570	-0.136230	-0.392578
24949		-5.381909	-1.123915	9.421708	0.120834	7.463153	1.842456	1.556152	-0.155273	-0.259521
24950		-3.734448	-3.562534	7.597407	0.204724	7.905894	1.996295	1.544189	-0.185303	-0.111572
24951		-14.150721	-6.195233	7.415485	0.626989	8.191105	2.368730	1.514893	-0.217529	0.012939
24952		-22.423230	-3.750549	5.757957	0.991526	7.342590	2.313688	1.476563	-0.241211	0.128418
24953		-20.007624	-1.518844	6.032716	0.674113	6.248075	2.177931	1.440674	-0.267090	0.216309
24954		-16.419111	-4.183945	6.455260	0.488749	5.230342	2.454524	1.400146	-0.290771	0.280762
24955		-9.470293	-1.036886	5.336364	0.132716	4.523360	2.354468	1.357666	-0.316895	0.332275
24956		-7.610084	-1.645461	4.275199	-0.183533	4.314943	2.536189	1.319336	-0.340820	0.375244
24957		-7.061929	0.189035	5.481599	-0.238010	4.071242	2.926271	1.274414	-0.368896	0.418213
24958		-9.511638	3.795159	10.713272	-0.754536	3.727345	3.105721	1.240967	-0.403564	0.446533
24959		-10.050309	1.354502	14.084780	-1.427100	3.226859	3.223592	1.196289	-0.438477	0.474609
24960		-8.657593	-1.449168	14.750879	-1.482383	2.870883	3.331023	1.158447	-0.477539	0.483643
24961		-9.553495	-3.905985	16.020661	-1.239017	2.666992	3.362089	1.126709	-0.510254	0.492676
24962		-9.634875	-6.604034	16.452343	-0.747691	2.412097	3.354826	1.095215	-0.544922	0.508057
24963		-8.578392	-7.222259	17.545105	-0.148595	2.231492	3.302770	1.067871	-0.575195	0.527588
24964		-7.877919	-6.731505	18.352418	0.256262	2.182991	3.120213	1.038574	-0.605713	0.551514
24965		-7.717059	-6.680482	18.715743	0.529998	2.141778	2.871460	1.019531	-0.625244	0.571045
24966		-8.180229	-6.345320	19.738702	0.750201	2.111687	2.599416	0.996338	-0.644775	0.592529
24967		-11.740099	-7.581978	21.141687	1.004350	1.959803	2.434534	0.970703	-0.664307	0.620605
24968		-15.843451	-9.960893	21.682090	1.556439	1.380958	2.322035	0.956299	-0.683838	0.650635
24969		-17.220853	-10.138492	21.851159	2.271282	0.446930	2.082224	0.952148	-0.690186	0.669922
24970		-15.773558	-6.990269	21.421558	2.544679	-0.588686	1.475526	0.961182	-0.698730	0.689453
24971		-13.387752	-4.683162	19.607306	2.124545	-1.551797	0.584533	0.980469	-0.694336	0.683105
24972		-10.662595	-5.136576	16.846155	1.406876	-2.310632	-0.267463	1.021973	-0.698730	0.681152
24973		-7.105082	-6.860802	13.701617	0.992076	-2.801579	-0.880881	1.065186	-0.694092	0.670654
24974		-4.842023	-7.899607	11.348828	0.969866	-3.115199	-1.266027	1.119141	-0.687500	0.649414
24975		-4.440111	-6.525802	10.565143	0.977303	-3.418029	-1.516052	1.175537	-0.683105	0.626221
24976		-5.307473	-4.041274	10.405216	0.492515	-3.867218	-1.810613	1.233887	-0.672119	0.585693
24977		-5.537255	-4.097270	9.873153	-0.218895	-4.475652	-2.121524	1.298828	-0.667969	0.530273
24978		-5.039426	-4.747247	9.318962	-0.868129	-5.029501	-2.291051	1.372314	-0.659180	0.455811
24979		-5.874742	-4.818508	9.081780	-1.399309	-5.493129	-2.344662	1.434814	-0.648438	0.364014
24980		-7.548026	-4.309982	9.046699	-1.905306	-5.916038	-2.393080	1.504150	-0.648438	0.261719
24981		-9.240686	-4.077649	9.231038	-2.435084	-6.255344	-2.474243	1.566406	-0.631348	0.131348
24982		-10.730883	-4.309548	9.049614	-2.845540	-6.535151	-2.615618	1.619873	-0.607666	-0.005615
24983		-11.008950	-4.270801	9.383361	-3.094323	-6.728712	-2.815204	1.659912	-0.575439	-0.159912
24984		-11.092750	-3.205374	10.218086	-3.346122	-6.731050	-3.027382	1.693115	-0.530273	-0.310303
24985		-12.456267	-1.930467	10.941413	-3.682056	-6.688203	-3.260044	1.701904	-0.467773	-0.471680
24986		-14.043953	-0.936463	11.597920	-3.964574	-6.685624	-3.538173	1.697510	-0.403076	-0.630859
24987		-15.823095	-0.120114	12.811294	-4.101994	-6.642454	-3.768081	1.692871	-0.323242	-0.792725
24988		-20.592311	2.198890	14.626488	-4.113158	-6.679797	-3.995958	1.655029	-0.230713	-0.948486
24989		-26.341514	4.445430	15.303812	-4.016986	-6.922067	-4.238569	1.617188	-0.133545	-1.106445
24990		-30.450310	5.459825	13.568833	-3.688033	-7.189828	-4.439332	1.544434	-0.025879	-1.260498
24991		-33.601562	6.450938	9.675223	-3.039901	-7.143889	-4.493665	1.458496	0.082031	-1.397461
24992		-35.935398	10.844227	5.211597	-2.414414	-6.634368	-4.433799	1.364014	0.181152	-1.510742
24993		-38.326411	15.054790	-0.227865	-2.280796	-5.768072	-4.228019	1.270020	0.276123	-1.604980
24994		-37.955097	13.070455	-8.091928	-2.325394	-4.782137	-3.542186	1.189209	0.355957	-1.664307
24995		-37.757325	13.290215	-16.594580	-1.960217	-3.551101	-2.501544	1.126709	0.418457	-1.710693
24996		-36.950205	15.524687	-23.021617	-1.445745	-2.116215	-1.740008	1.088379	0.461670	-1.726563
24997		-36.553718	15.678870	-24.819794	-0.734619	-0.834257	-1.344427	1.078857	0.485352	-1.733398
24998		-36.334688	15.702087	-23.371552	0.001281	0.032812	-1.208024	1.078613	0.494141	-1.733643
24999		-34.563539	15.574698	-20.808895	0.325426	0.669243	-1.255203	1.098145	0.500732	-1.718750
25000		-29.502904	13.327300	-17.717264	0.387106	1.546575	-1.404044	1.126465	0.498779	-1.695068
25001		-20.763640	2.900096	-17.297583	1.245550	2.662925	-1.387012	1.179199	0.481689	-1.653809
25002		-18.803293	7.511624	-15.616040	2.645417	4.066044	-0.700509	1.265381	0.432129	-1.596924
25003		-0.961499	-3.485856	-7.908479	3.282812	5.389159	0.751862	1.369873	0.356689	-1.515869
25004		0.356331	-2.536609	17.136097	2.462821	6.368891	3.492153	1.488037	0.253418	-1.408691
25005		-41.670746	-0.565315	28.363905	2.427270	6.311932	4.502630	1.578369	0.143311	-1.303711
25006		-54.904425	9.317578	24.689247	3.201432	2.842375	2.684156	1.595703	0.069824	-1.246826
25007		-16.111300	-1.732582	17.669734	2.196976	1.015098	2.387795	1.597412	0.017822	-1.218018
25008		-13.661218	13.665460	9.135879	1.134948	-0.635386	1.369841	1.574219	-0.003906	-1.213623
25009		-16.909410	10.830902	7.334274	0.780456	-0.970528	0.413299	1.555176	-0.019043	-1.200684
25010		-6.722933	-1.052188	13.170057	0.666702	-0.823345	0.002931	1.541748	-0.008301	-1.181641
25011		0.223098	-4.540123	14.276687	0.591465	-0.355153	-0.074602	1.529053	-0.014648	-1.164551
25012		-8.776902	-1.550781	9.441089	0.619986	-0.316531	-0.058254	1.513916	-0.019043	-1.143066
25013		-8.356802	-2.977908	9.256759	0.509642	-0.073191	0.070326	1.502930	-0.014648	-1.117676
25014		-7.315739	-2.713943	9.590261	0.416642	0.031824	0.006876	1.498779	-0.021240	-1.087646
25015		-6.950632	-1.070502	10.747643	0.266616	0.217315	0.015007	1.500977	-0.018799	-1.057617
25016		-5.004807	-5.358790	10.508383	0.134703	0.492805	0.067438	1.490234	-0.018799	-1.023438
25017		-6.664415	-2.671359	11.444226	0.217356	0.654551	0.159493	1.492676	-0.025146	-0.978516
25018		-8.980733	-0.372046	11.686234	0.194817	1.063188	0.200588	1.490723	-0.031494	-0.927002
25019		-4.792408	-0.769406	14.606211	0.419354	1.776027	0.221040	1.499512	-0.031250	-0.864990
25020		-6.142354	-2.829646	17.075185	0.101602	2.945151	0.274518	1.506348	-0.044189	-0.787842
25021		-3.500908	-1.510611	16.903082	-0.117325	4.069080	0.351530	1.519531	-0.041748	-0.693604
25022		1.166840	-2.943851	16.891260	-0.308032	5.233204	0.454299	1.534912	-0.045654	-0.584473
25023		0.256963	-0.747682	14.813439	-0.589283	6.345040	0.954499	1.544434	-0.062500	-0.462158
25024		-4.190343	0.106549	11.820043	-0.610740	7.161067	1.459732	1.555908	-0.079590	-0.322998
25025		-3.495616	-0.603410	10.446139	-0.444250	7.534077	1.542904	1.539307	-0.098633	-0.190186
25026		-4.028668	-2.761073	7.575722	-0.262127	7.991467	1.692288	1.524902	-0.120117	-0.048584
25027		-13.343278	-7.140442	6.632729	0.237889	8.340020	1.887366	1.493408	-0.147949	0.086426
25028		-23.644615	-5.275313	4.793199	0.723718	7.662080	1.866298	1.457031	-0.160889	0.191162
25029		-20.511340	-6.007060	4.722974	0.713156	6.645194	1.825933	1.412109	-0.180176	0.283203
25030		-13.306147	-5.213661	6.690157	0.893276	5.924943	2.334185	1.371582	-0.206055	0.351807
25031		-11.310103	-2.199763	7.635398	0.628029	5.202186	2.415833	1.328857	-0.223389	0.411865
25032		-7.097267	-1.611373	6.149953	0.411171	4.938717	2.486624	1.292725	-0.245117	0.463379
25033		-7.627942	-1.065708	6.701682	0.325505	4.651819	2.440283	1.250000	-0.271240	0.514893
25034		-5.357454	0.269871	8.061819	0.209226	4.646729	2.453683	1.200928	-0.292969	0.562012
25035		-7.651525	5.702883	12.947788	-0.421257	4.729604	2.617281	1.160400	-0.323242	0.598633
25036		-13.335710	7.643846	17.948874	-1.759406	4.260210	2.951285	1.124756	-0.360107	0.618408
25037		-14.116929	2.353425	18.862221	-2.684651	3.484560	3.496452	1.084961	-0.410156	0.640381
25038		-14.637860	-3.110508	18.866561	-2.757069	2.748407	4.016147	1.047363	-0.464355	0.643066
25039		-13.677015	-5.499393	18.762980	-2.488552	2.146452	4.197115	1.012207	-0.516602	0.648193
25040		-12.417733	-6.866605	18.420264	-2.113045	1.843904	4.070584	0.983154	-0.568848	0.644531
25041		-11.388502	-8.234291	17.896573	-1.683726	1.640513	3.739729	0.962891	-0.616455	0.647461
25042		-11.131502	-9.829992	17.549607	-1.101701	1.536540	3.298680	0.942139	-0.649170	0.652100
25043		-12.852864	-10.516091	17.757534	-0.425296	1.389924	2.838517	0.919189	-0.681641	0.669678
25044		-14.661924	-10.830925	17.522119	0.227190	1.001829	2.323030	0.906982	-0.703369	0.691406
25045		-15.576977	-10.854273	17.418636	0.869724	0.366587	1.732262	0.909424	-0.716309	0.700195
25046		-16.245876	-9.353270	16.715648	1.284234	-0.454048	1.034103	0.927246	-0.724854	0.706787
25047		-15.648046	-8.746765	15.564184	1.490924	-1.388068	0.247401	0.946777	-0.731201	0.715576
25048		-14.050607	-8.199640	13.679749	1.539509	-2.265114	-0.464591	0.985840	-0.731201	0.705078
25049		-12.126177	-7.398708	11.230375	1.539512	-3.136602	-1.095828	1.037598	-0.715820	0.692383
25050		-9.046869	-6.846831	9.366701	1.509593	-3.917645	-1.561275	1.104736	-0.707031	0.666748
25051		-6.015095	-4.952578	7.772254	1.277778	-4.486317	-1.929739	1.169189	-0.689697	0.632813
25052		-3.788222	-3.639457	6.665884	0.748454	-4.785395	-2.259995	1.238281	-0.676514	0.587891
25053		-2.905652	-3.780700	5.724839	0.142643	-4.961023	-2.512191	1.307129	-0.661377	0.523926
25054		-3.089434	-4.168655	5.314008	-0.372923	-5.126281	-2.640817	1.374023	-0.646240	0.453369
25055		-4.960653	-4.083134	5.490070	-0.823127	-5.334882	-2.667942	1.447266	-0.628906	0.370117
25056		-7.947636	-3.680397	5.710423	-1.267590	-5.716870	-2.704561	1.513916	-0.613770	0.269775
25057		-9.444487	-3.619071	5.676149	-1.653835	-6.191481	-2.805693	1.575928	-0.585693	0.152100
25058		-9.094315	-3.848441	5.544320	-1.961373	-6.504943	-2.967231	1.624756	-0.555420	0.019043
25059		-8.954767	-4.023834	5.602908	-2.152644	-6.582560	-3.147337	1.669189	-0.523193	-0.115967
25060		-9.605583	-3.534051	6.174165	-2.306993	-6.540362	-3.344202	1.704346	-0.467041	-0.264160
25061		-10.647258	-2.804033	7.014520	-2.477093	-6.471345	-3.568444	1.722168	-0.415527	-0.401855
25062		-12.184613	-2.097439	8.222769	-2.681877	-6.342526	-3.801949	1.732910	-0.346436	-0.546143
25063		-15.502510	-1.516161	9.571741	-2.862314	-6.238885	-4.028221	1.719482	-0.262207	-0.686768
25064		-19.918738	-0.688541	10.657698	-2.980075	-6.267938	-4.236423	1.706055	-0.184570	-0.835693
25065		-25.584619	0.503682	11.183860	-3.065078	-6.439093	-4.426026	1.674805	-0.091797	-0.976318
25066		-30.295292	2.223694	9.678968	-3.063955	-6.777110	-4.669435	1.621338	0.018066	-1.124023
25067		-32.675813	3.348538	6.179727	-2.800194	-7.042059	-4.890702	1.541992	0.128174	-1.260986
25068		-32.526531	6.696725	2.293735	-2.275009	-6.878421	-4.972557	1.451904	0.227295	-1.382813
25069		-32.798154	13.052100	-1.329915	-2.001721	-6.142030	-4.832734	1.364014	0.333008	-1.483398
25070		-33.885433	17.168819	-5.820691	-2.392301	-5.119672	-4.263497	1.278809	0.421387	-1.555908
25071		-33.876102	13.716390	-11.488407	-2.859600	-4.099686	-2.944202	1.208984	0.499268	-1.600342
25072		-35.394350	12.910698	-16.908425	-2.814659	-3.172358	-1.169414	1.163818	0.557617	-1.627441
25073		-36.055638	17.753395	-19.940584	-2.710013	-2.245662	-0.028845	1.129883	0.603027	-1.634766
25074		-36.223858	18.148816	-20.373000	-2.855437	-1.318212	0.276858	1.122070	0.648438	-1.631348
25075		-37.314331	9.547906	-21.452457	-2.167374	-0.872221	0.121509	1.108398	0.672363	-1.627441
25076		-27.710820	7.571427	-22.135512	-0.078216	-0.057993	-0.201307	1.126221	0.655029	-1.618408
25077		-18.345945	4.445321	-21.981781	2.421271	1.882871	-0.250089	1.171143	0.605469	-1.593994
25078		-21.903746	9.244002	-16.444122	3.715881	3.914231	0.108519	1.260498	0.525635	-1.544922
25079		-3.289066	-9.324850	3.206739	3.961582	4.630951	1.903420	1.354736	0.421875	-1.478516
25080		-3.412217	3.275008	29.639750	2.900665	5.435885	4.514497	1.460449	0.309814	-1.388428
25081		-30.027927	5.389101	26.339199	2.488181	5.465886	4.415247	1.541748	0.206055	-1.290039
25082		-37.325260	-1.011699	22.662483	3.065902	4.339382	4.198216	1.586426	0.095947	-1.219482
25083		-18.587183	0.763191	12.683780	2.594119	1.990019	3.431925	1.595215	0.022217	-1.173340
25084		-21.790876	18.021564	9.124888	2.096373	-0.027961	1.788221	1.579102	-0.020996	-1.159912
25085		-19.915703	8.404467	7.616683	1.082084	-1.165597	1.026987	1.555908	-0.042725	-1.151123
25086		-2.748677	-5.199055	13.082240	0.912725	-1.095402	0.368231	1.543213	-0.058105	-1.137939
25087		-4.902494	-3.057634	10.997475	0.956240	-0.800798	0.214853	1.519775	-0.066650	-1.127197
25088		-11.609751	2.194378	10.060953	0.932526	-0.811457	0.095987	1.502686	-0.077637	-1.114258
25089		-6.392472	-2.495727	10.791867	0.729017	-0.489666	0.074918	1.489990	-0.090576	-1.088623
25090		-7.888076	-2.090166	10.082677	0.677462	-0.333783	0.110157	1.481689	-0.101318	-1.064941
25091		-5.316564	-0.685270	10.675605	0.529566	-0.116619	0.097270	1.466797	-0.112061	-1.034912
25092		-6.303350	-2.913177	10.696835	0.449365	0.095608	0.132500	1.458252	-0.114258	-1.000732
25093		-8.510165	-2.418329	10.757665	0.399177	0.267289	0.151285	1.445557	-0.120605	-0.964355
25094		-8.240993	-1.336677	10.552739	0.364766	0.466838	0.162566	1.437256	-0.131348	-0.921387
25095		-6.491994	-3.002970	12.181329	0.419465	0.716791	0.215627	1.428711	-0.137939	-0.878418
25096		-7.433997	-6.166531	13.478430	0.853988	1.485325	0.299160	1.427002	-0.150635	-0.814209
25097		-2.545557	-1.120125	18.872581	0.673448	2.954674	0.497510	1.425049	-0.154785	-0.737061
25098		-0.238190	-3.586846	18.813015	0.313447	4.312021	0.791692	1.429932	-0.169678	-0.640625
25099		-0.261121	-0.515162	18.118725	0.045745	5.674074	1.360736	1.437256	-0.188965	-0.535400
25100		-2.170035	0.521638	15.376077	-0.060157	6.709900	1.784398	1.440186	-0.206055	-0.417480
25101		-1.969183	0.287023	11.726786	0.048727	7.394725	1.982154	1.432373	-0.236084	-0.291016
25102		-3.744248	-0.247350	9.201061	0.297943	7.799072	2.058293	1.417969	-0.257324	-0.166748
25103		-4.838680	-2.249439	7.443781	0.471266	8.252991	2.241433	1.392822	-0.281006	-0.044434
25104		-18.107868	-5.252828	8.045495	1.077074	8.334993	2.227293	1.367676	-0.300293	0.073242
25105		-22.798445	-3.433807	6.632671	1.512458	7.214651	2.071746	1.324463	-0.306641	0.169434
25106		-18.203529	-5.365202	4.622785	1.353282	6.149953	2.276440	1.290527	-0.332520	0.242432
25107		-14.345129	-4.180346	5.981964	1.613606	5.294327	2.690590	1.249756	-0.347656	0.295898
25108		-7.038292	-0.019324	3.605716	1.194634	4.952433	2.741323	1.213623	-0.369385	0.353760
25109		-7.356481	3.500270	4.929879	0.358959	5.025234	2.856561	1.168701	-0.391113	0.394531
25110		-8.982292	3.625897	8.182361	-0.702099	4.849983	3.085887	1.126221	-0.419189	0.441895
25111		-11.244264	2.297206	12.215560	-1.434953	4.424943	3.452376	1.085938	-0.456055	0.463623
25112		-14.079633	1.298336	15.301912	-1.868282	3.641764	4.027470	1.046143	-0.499512	0.472656
25113		-15.621462	-2.417158	16.315870	-1.951479	2.846432	4.389171	1.017090	-0.545166	0.473389
25114		-15.393185	-6.229256	16.861683	-1.692363	2.115678	4.423687	0.977295	-0.595215	0.482422
25115		-12.294424	-9.168101	16.577970	-1.099211	1.781876	4.229394	0.949951	-0.627930	0.478760
25116		-10.374354	-10.462582	16.532062	-0.390579	1.816547	3.873604	0.924805	-0.656006	0.493896
25117		-9.519899	-10.674534	17.060415	0.281148	2.030690	3.334246	0.899414	-0.682129	0.509277
25118		-9.526795	-9.478310	18.203215	0.769427	2.291669	2.699000	0.874023	-0.701660	0.539307
25119		-10.807978	-9.796788	19.093609	1.110806	2.435640	2.079771	0.853027	-0.718994	0.575928
25120		-13.185673	-9.708767	20.205235	1.498281	2.279008	1.554715	0.835693	-0.723389	0.595215
25121		-15.036392	-8.802869	20.124840	1.796853	1.699658	0.986772	0.827148	-0.725342	0.635742
25122		-15.031200	-7.346233	19.242463	1.847696	0.852103	0.340765	0.831543	-0.723145	0.657227
25123		-14.505800	-5.342219	18.088221	1.572706	-0.137577	-0.347272	0.857422	-0.723145	0.670166
25124		-12.116685	-4.644747	16.681899	1.046468	-1.120860	-1.008012	0.883545	-0.720703	0.678711
25125		-9.850880	-4.708946	14.379840	0.514104	-2.001022	-1.540871	0.920410	-0.716309	0.674561
25126		-7.540106	-4.856880	11.832334	0.179622	-2.836295	-1.953169	0.968018	-0.711914	0.659912
25127		-4.463959	-4.396917	9.390388	-0.026592	-3.511083	-2.238987	1.026367	-0.703125	0.634277
25128		-2.000810	-3.704357	7.623486	-0.298876	-3.914166	-2.442813	1.091309	-0.702881	0.608887
25129		-1.254659	-3.496266	6.652429	-0.673675	-4.124349	-2.581886	1.152100	-0.700684	0.557861
25130		-2.277785	-3.449173	6.552778	-1.051793	-4.312192	-2.680235	1.223145	-0.685547	0.515381
25131		-5.506329	-2.994119	7.813295	-1.466711	-4.651244	-2.771816	1.288330	-0.685547	0.445068
25132		-9.381635	-2.124761	8.431621	-1.923401	-5.315525	-2.970735	1.359375	-0.668213	0.365967
25133		-9.770880	-1.943992	8.231924	-2.342918	-6.024924	-3.204770	1.439209	-0.657227	0.261475
25134		-8.662101	-2.650736	7.242151	-2.654514	-6.393188	-3.399028	1.507813	-0.629150	0.148193
25135		-7.616764	-3.092538	6.785509	-2.756792	-6.412469	-3.524529	1.571777	-0.596924	0.019531
25136		-8.312172	-3.174113	7.493767	-2.808463	-6.229235	-3.621297	1.624756	-0.555908	-0.109131
25137		-10.790317	-3.037905	8.865533	-2.858298	-6.122578	-3.763646	1.664063	-0.501953	-0.246582
25138		-13.345560	-3.181480	9.565450	-2.844130	-6.243490	-4.002441	1.696777	-0.437256	-0.384521
25139		-13.750340	-2.939243	10.340501	-2.762409	-6.368212	-4.328994	1.719971	-0.348633	-0.531250
25140		-14.005698	-1.674118	11.781180	-2.714452	-6.311482	-4.678756	1.719482	-0.262207	-0.678223
25141		-16.080385	0.624566	13.422343	-2.776355	-6.140943	-5.043110	1.720459	-0.158447	-0.821045
25142		-20.701973	2.230264	14.727583	-2.885736	-6.020221	-5.386313	1.692871	-0.043945	-0.959961
25143		-27.246834	1.931153	14.443743	-2.643708	-6.189341	-5.541257	1.654297	0.083496	-1.092773
25144		-31.748554	4.907244	12.298207	-1.942850	-6.458679	-5.482603	1.581543	0.187012	-1.231689
25145		-32.431180	11.603145	8.467288	-1.554717	-6.523226	-5.283836	1.500000	0.292480	-1.355957
25146		-31.775953	15.647207	3.083677	-1.725168	-6.027772	-4.797209	1.409912	0.394043	-1.462891
25147		-32.785164	13.321845	-3.890991	-1.893243	-5.142958	-3.669239	1.329346	0.473633	-1.543701
25148		-33.317088	10.598309	-11.209740	-1.671950	-4.240273	-1.942175	1.251953	0.516602	-1.606934
25149		-37.713072	14.929295	-17.538862	-1.508854	-3.120986	-0.633810	1.202881	0.557617	-1.646484
25150		-38.241415	18.115861	-21.063312	-1.564630	-2.031087	-0.276993	1.177979	0.592285	-1.657715
25151		-34.743990	17.698572	-23.687651	-1.431352	-0.848534	-0.827000	1.164307	0.613770	-1.660400
25152		-30.719057	10.417876	-24.516224	-0.394248	0.431501	-1.291295	1.178955	0.629150	-1.652100
25153		-25.297269	5.635423	-22.396813	1.502629	1.740728	-1.292640	1.218994	0.603271	-1.629883
25154		-28.866324	15.077141	-19.615473	2.920402	2.960448	-0.738930	1.279541	0.538574	-1.602783
25155		-27.691408	8.122246	-29.549079	4.135799	4.060176	1.873460	1.378174	0.437012	-1.536377
25156		-12.671410	14.965549	5.837243	1.956729	6.669353	5.490421	1.514404	0.314209	-1.422363
25157		-54.785905	-25.428276	30.457769	1.137521	5.988160	5.477486	1.598877	0.180176	-1.319336
25158		-21.837900	-17.108359	19.793697	4.566442	3.615836	3.415613	1.643066	0.085205	-1.255371
25159		-28.306445	11.943753	22.244796	3.843937	1.352468	1.743236	1.645508	0.009277	-1.221924
25160		-20.227692	25.033936	13.300644	1.249610	-0.340462	2.109085	1.622559	-0.025391	-1.206543
25161		-16.505801	12.974978	10.150019	0.788179	-0.820318	0.519992	1.601563	-0.044922	-1.202148
25162		-6.743038	0.153350	12.965963	0.519833	-0.687235	0.123195	1.581787	-0.042725	-1.185059
25163		0.510117	-6.695973	12.139049	0.556143	-0.469312	0.044111	1.569092	-0.051514	-1.172119
25164		-8.847254	-0.264526	8.849772	0.605503	-0.374645	0.060682	1.549805	-0.060303	-1.150635
25165		-8.990103	-2.192185	9.601437	0.439659	-0.177120	0.070009	1.539307	-0.071045	-1.125000
25166		-8.412493	-4.437349	10.190425	0.432576	-0.101358	0.071344	1.532959	-0.075195	-1.099365
25167		-6.582711	-0.737468	11.113031	0.391061	0.065092	0.079719	1.517822	-0.075195	-1.071533
25168		-6.722674	-4.459150	10.017591	0.285347	0.325001	0.052675	1.507324	-0.083984	-1.039307
25169		-6.497780	-3.918685	11.310644	0.310726	0.409709	0.097202	1.503418	-0.094727	-1.005127
25170		-6.334594	-1.890800	12.469875	0.258183	0.822267	0.161909	1.490479	-0.103271	-0.951416
25171		-6.733828	-3.274658	14.687009	0.453689	1.684940	0.273558	1.493408	-0.120361	-0.893311
25172		-4.363354	-1.935585	18.320811	0.284095	3.058922	0.446278	1.500000	-0.124512	-0.814209
25173		-1.181994	-1.597529	19.250949	-0.041386	4.455496	0.626900	1.509277	-0.137207	-0.709229
25174		1.496472	-0.247616	17.965303	-0.302221	5.725673	0.887420	1.527100	-0.147705	-0.593506
25175		1.250780	2.460499	14.625024	-0.533401	6.863509	1.270502	1.538574	-0.160156	-0.467041
25176		-3.132126	1.444591	12.592479	-0.622962	7.666041	1.487279	1.543701	-0.181396	-0.325439
25177		-2.889120	0.964827	10.459985	-0.424028	8.181671	1.518610	1.529297	-0.202881	-0.184082
25178		-4.383593	-3.420177	7.413554	-0.397778	8.943478	1.587716	1.506104	-0.219727	-0.030029
25179		-19.972533	-6.728249	6.293023	0.182957	8.971598	1.606611	1.474365	-0.236816	0.102783
25180		-28.025935	-5.854999	4.193250	0.473004	7.829866	1.594330	1.431396	-0.247559	0.207520
25181		-17.474763	-7.463547	3.350859	0.671210	6.545682	1.898221	1.390625	-0.260498	0.292969
25182		-14.931008	-6.610519	5.949335	0.970284	5.495411	2.311578	1.341064	-0.271240	0.357178
25183		-10.201174	-1.931304	6.808065	1.002015	4.815079	2.463061	1.309082	-0.292969	0.408691
25184		-9.117552	1.472312	6.140842	0.276925	4.483463	2.302969	1.266357	-0.310303	0.457764
25185		-6.217881	-0.940544	5.927567	-0.070417	4.232401	2.297789	1.227539	-0.319092	0.491943
25186		-8.549272	2.469425	12.533179	-0.326090	3.968320	2.531237	1.189453	-0.349365	0.524414
25187		-11.921278	3.029008	17.618539	-1.000801	3.338385	2.889515	1.155273	-0.373291	0.541748
25188		-10.803750	1.283656	18.723820	-1.428242	2.834468	3.087892	1.121826	-0.410156	0.552734
25189		-9.880765	-0.993937	19.684156	-1.768898	2.481445	3.270293	1.096436	-0.438477	0.568115
25190		-8.228348	-4.275772	19.029258	-1.713725	2.294804	3.522958	1.061035	-0.484131	0.572998
25191		-7.342698	-5.887639	18.843220	-1.399694	2.226022	3.791971	1.031738	-0.525391	0.584229
25192		-7.748415	-5.925973	19.154340	-1.100744	2.196246	3.870581	1.002686	-0.566650	0.595459
25193		-8.500575	-6.083153	19.221142	-0.970539	2.085337	3.679275	0.968994	-0.601318	0.610840
25194		-10.303554	-7.671961	18.823529	-0.815740	1.866206	3.378330	0.941650	-0.636230	0.630615
25195		-12.816335	-9.390887	18.861683	-0.528938	1.529797	3.050578	0.921143	-0.670898	0.637451
25196		-14.982155	-11.708724	18.440310	-0.001053	1.038031	2.649048	0.904541	-0.697021	0.655029
25197		-15.266720	-12.624352	17.425880	0.811506	0.353946	2.126955	0.896484	-0.716309	0.670166
25198		-13.600282	-10.850876	16.586083	1.440400	-0.395147	1.445787	0.903320	-0.725098	0.683105
25199		-11.643110	-9.027859	15.013905	1.594494	-0.995199	0.576934	0.920898	-0.731445	0.700439
25200		-9.895206	-8.445717	12.815096	1.454646	-1.414187	-0.290918	0.953369	-0.729248	0.704834
25201		-8.518997	-8.935513	10.650666	1.403255	-1.814422	-1.045235	0.985840	-0.724609	0.711426
25202		-7.563682	-8.668543	9.204860	1.486308	-2.253979	-1.658997	1.033203	-0.711426	0.713623
25203		-7.716574	-8.064828	8.261105	1.544532	-2.784080	-2.122095	1.091309	-0.691895	0.702881
25204		-8.379475	-6.588133	8.310599	1.431894	-3.449578	-2.464366	1.155762	-0.674316	0.687988
25205		-8.705458	-4.405615	9.020608	1.014629	-4.214231	-2.789210	1.231201	-0.654785	0.643066
25206		-9.740002	-2.742859	9.470928	0.208204	-4.998579	-3.089523	1.317383	-0.632813	0.587646
25207		-11.198101	-3.043698	8.795961	-0.640927	-5.830500	-3.306257	1.401367	-0.611328	0.506348
25208		-11.247877	-4.160335	8.143623	-1.235018	-6.573411	-3.379272	1.489502	-0.585205	0.395264
25209		-11.700624	-4.625063	7.827903	-1.545912	-7.072232	-3.374591	1.566650	-0.557129	0.262695
25210		-12.297225	-3.879043	7.885209	-1.729200	-7.462659	-3.432632	1.636963	-0.522705	0.114990
25211		-11.702597	-2.538315	8.227227	-1.977419	-7.648978	-3.526623	1.693848	-0.470947	-0.037598
25212		-11.262811	-1.133549	8.923969	-2.318072	-7.648658	-3.613871	1.733398	-0.421387	-0.200684
25213		-11.823536	0.937324	10.127829	-2.765910	-7.514438	-3.652900	1.753174	-0.361084	-0.372559
25214		-13.742653	2.740594	11.130898	-3.265555	-7.437576	-3.671335	1.759521	-0.291992	-0.549072
25215		-15.779491	3.610389	12.279476	-3.679862	-7.379760	-3.681119	1.741699	-0.208008	-0.715332
25216		-20.454244	2.907778	13.359711	-3.816656	-7.285214	-3.601953	1.710938	-0.130615	-0.879150
25217		-28.458233	2.334324	13.543935	-3.463411	-7.481682	-3.447854	1.655762	-0.042236	-1.050049
25218		-32.875805	3.848000	11.705993	-2.792553	-7.836111	-3.429197	1.575195	0.037354	-1.212158
25219		-35.503825	6.301275	7.052678	-2.159717	-7.885924	-3.588049	1.481445	0.114746	-1.354980
25220		-37.296005	8.378360	0.546230	-1.619881	-7.405188	-3.768880	1.370117	0.200684	-1.483398
25221		-37.542990	10.605507	-6.177091	-1.278461	-6.362965	-3.644537	1.278809	0.269531	-1.587646
25222		-36.849170	11.376792	-12.889462	-1.301847	-4.954185	-3.108570	1.194336	0.334229	-1.648926
25223		-38.635369	13.470188	-19.335712	-1.313094	-3.391237	-2.513587	1.136230	0.383789	-1.695068
25224		-38.728708	14.533121	-25.791439	-0.974290	-1.992853	-2.324279	1.100342	0.422607	-1.706543
25225		-36.286314	12.563069	-28.690635	0.019397	-0.758264	-2.222206	1.084717	0.437744	-1.719727
25226		-33.985145	13.121578	-26.492752	1.254121	0.225166	-1.964759	1.082520	0.435547	-1.719727
25227		-34.081739	17.837484	-21.511048	1.482072	0.998016	-1.862050	1.104492	0.433594	-1.704590
25228		-30.529488	18.138064	-16.505919	0.833539	1.674549	-1.912800	1.136963	0.437988	-1.683105
25229		-20.422696	9.772025	-13.866497	0.550051	2.517330	-1.523759	1.184814	0.436279	-1.629395
25230		-15.672829	10.054491	-13.510603	0.833307	3.740420	0.101537	1.257324	0.408447	-1.564453
25231		4.782704	-17.135849	-2.335558	1.495816	4.523726	2.248193	1.351074	0.326416	-1.489746
25232		-7.060804	-11.453172	19.526877	1.376353	5.395619	5.545510	1.454346	0.218506	-1.397705
25233		-40.126877	-16.363664	17.977008	2.394585	5.956074	5.255391	1.540527	0.104248	-1.292480
25234		-55.219772	-2.078193	25.016582	3.703668	2.555318	2.893585	1.555908	0.024170	-1.241943
25235		-6.004821	7.166070	19.267163	2.606867	1.431799	2.379106	1.555420	-0.030029	-1.208984
25236		-16.997033	21.333701	8.493358	1.021035	-0.246975	1.250210	1.547607	-0.055908	-1.189209
25237		-19.171653	7.607406	6.731823	0.614535	-0.778221	0.426649	1.532471	-0.060303	-1.176514
25238		-3.894210	-2.142702	16.144569	0.639449	-0.660082	0.249616	1.512695	-0.055908	-1.151123
25239		-1.871194	-3.727115	12.132971	0.574301	-0.252995	0.132710	1.510986	-0.064697	-1.131592
25240		-10.154322	-1.382178	8.295410	0.605772	-0.306965	0.147592	1.495850	-0.066650	-1.112549
25241		-7.615672	-2.574606	8.869240	0.474040	-0.181736	0.138636	1.489502	-0.073242	-1.091064
25242		-9.418909	-2.754013	9.785018	0.387319	-0.027492	0.160449	1.485352	-0.075439	-1.058838
25243		-6.185084	-1.570641	11.498709	0.332108	0.105747	0.155631	1.474609	-0.077393	-1.029053
25244		-4.729126	-3.730315	11.076109	0.286769	0.419261	0.274053	1.470459	-0.085938	-0.992432
25245		-8.053653	-0.883667	11.411639	0.280063	0.635114	0.223172	1.468262	-0.085938	-0.947510
25246		-8.155093	-1.510045	11.621287	0.285338	0.958266	0.200269	1.468750	-0.094482	-0.896240
25247		-6.989747	-3.852318	13.536900	0.483857	1.693889	0.228176	1.466797	-0.100830	-0.836182
25248		-5.005359	-2.143474	17.398561	0.465776	2.984331	0.205838	1.475586	-0.098389	-0.757080
25249		-2.735952	-2.048326	18.023541	0.216037	4.263554	0.337199	1.495361	-0.104492	-0.662842
25250		1.150915	-0.108259	17.129234	-0.006185	5.490020	0.653713	1.508789	-0.108398	-0.547119
25251		-0.118144	-0.054673	15.030575	-0.223531	6.512136	0.969855	1.509277	-0.123291	-0.425049
25252		-3.862700	0.507428	12.732673	-0.281297	7.193937	1.390597	1.512207	-0.142578	-0.298584
25253		-4.560583	-0.506447	9.665352	-0.100205	7.635221	1.529236	1.499756	-0.157471	-0.167969
25254		-3.353317	-2.250373	7.655956	-0.029317	8.029164	1.704737	1.481201	-0.178711	-0.032959
25255		-12.319208	-4.753636	6.440601	0.291840	8.383353	2.017226	1.447266	-0.202393	0.093506
25256		-24.408940	-4.909451	5.744260	0.801008	7.596112	1.926991	1.410889	-0.215088	0.202637
25257		-18.249114	-1.777049	6.214532	0.844422	6.584355	1.888295	1.372314	-0.234619	0.275391
25258		-14.617448	-3.844801	7.286275	0.654828	5.842567	2.283451	1.325439	-0.256104	0.350342
25259		-12.223127	-1.469220	7.555487	0.255437	5.362168	2.190031	1.282471	-0.269287	0.403809
25260		-10.720126	-1.521610	6.521297	-0.310956	5.162357	2.302224	1.246338	-0.297363	0.453125
25261		-10.486176	-0.291898	7.359555	-0.634606	4.802860	2.521410	1.203857	-0.325439	0.500488
25262		-11.261956	3.162726	11.100736	-1.026242	4.333121	2.942000	1.163574	-0.355957	0.528564
25263		-12.830056	5.562049	16.684177	-1.919635	3.545757	3.394602	1.130127	-0.401611	0.537842
25264		-10.351818	2.431631	16.877773	-2.623751	2.899298	3.739074	1.094727	-0.451416	0.553467
25265		-9.138733	-2.635786	16.650327	-2.624368	2.546504	3.961553	1.063721	-0.503662	0.554199
25266		-7.844448	-6.793100	15.688566	-1.933555	2.371138	4.170892	1.028076	-0.549316	0.559082
25267		-6.607416	-7.189938	15.688639	-1.000046	2.386946	4.196993	0.996826	-0.588379	0.574463
25268		-7.543935	-6.530295	16.452954	-0.349751	2.559216	3.916288	0.960938	-0.627441	0.594238
25269		-10.181206	-7.220384	16.818522	0.087830	2.616851	3.408737	0.925049	-0.657959	0.622314
25270		-13.615784	-8.973190	18.096108	0.577280	2.436520	2.778574	0.899658	-0.677490	0.648193
25271		-17.469301	-11.722796	18.981098	1.366771	1.966726	2.142180	0.882568	-0.688232	0.676025
25272		-18.671479	-11.953230	18.831015	2.331630	1.111988	1.369053	0.880371	-0.683838	0.705811
25273		-15.984052	-8.094332	17.721890	2.775025	0.251874	0.352848	0.893311	-0.681641	0.731689
25274		-12.027926	-6.059063	15.624357	2.518835	-0.249450	-0.714215	0.909912	-0.657471	0.748291
25275		-10.051140	-7.230186	13.224857	2.297731	-0.369154	-1.421974	0.939697	-0.633545	0.775879
25276		-11.021486	-7.226442	12.365329	2.382383	-0.609084	-1.758222	0.971680	-0.611816	0.792725
25277		-12.449774	-4.843085	12.263465	2.383050	-1.300736	-2.008079	1.010010	-0.587646	0.811768
25278		-11.400023	-3.029613	11.938851	2.070216	-2.319680	-2.253234	1.063477	-0.559326	0.798828
25279		-7.889316	-2.203395	10.958098	1.523638	-3.255571	-2.451864	1.129883	-0.531006	0.785889
25280		-5.156794	-2.659547	9.621730	0.967831	-3.931998	-2.539000	1.200928	-0.511475	0.747559
25281		-4.964158	-3.249300	8.675647	0.552615	-4.494482	-2.504192	1.267822	-0.496094	0.702637
25282		-6.510881	-3.035477	8.577806	0.205032	-5.067624	-2.423462	1.347412	-0.474365	0.640625
25283		-8.525439	-2.889490	8.453408	-0.147712	-5.714927	-2.389787	1.418457	-0.459229	0.561768
25284		-9.291488	-2.509107	8.123167	-0.486137	-6.387213	-2.405379	1.500488	-0.444092	0.465576
25285		-8.651271	-1.341749	7.520706	-0.896224	-6.925341	-2.484980	1.573730	-0.426758	0.348145
25286		-7.620979	-1.214707	6.764420	-1.335132	-7.235322	-2.595357	1.642334	-0.403076	0.213379
25287		-6.725903	-1.691562	6.642505	-1.643835	-7.267364	-2.616599	1.688965	-0.375244	0.067871
25288		-7.988730	-1.742774	7.170856	-1.831011	-7.161497	-2.546820	1.735596	-0.344971	-0.077881
25289		-9.167207	-0.665339	8.177473	-1.989080	-7.142922	-2.511634	1.756104	-0.310791	-0.228027
25290		-11.542318	0.531873	9.610038	-2.306940	-7.229011	-2.505677	1.770020	-0.272217	-0.395508
25291		-15.323424	0.233982	10.365070	-2.620906	-7.506127	-2.553744	1.763916	-0.220459	-0.558838
25292		-17.418281	0.074980	10.637159	-2.712687	-7.898410	-2.675059	1.731934	-0.173340	-0.732910
25293		-19.996361	1.453295	10.758052	-2.820945	-8.066870	-2.908027	1.692627	-0.104736	-0.909668
25294		-24.855805	1.728064	9.398867	-2.914715	-8.126750	-3.264445	1.627197	-0.031494	-1.080322
25295		-29.353522	1.908791	6.753767	-2.647312	-8.116975	-3.673218	1.544189	0.052246	-1.238281
25296		-33.303744	4.175930	2.975276	-2.133569	-7.805180	-4.087242	1.452393	0.136230	-1.381348
25297		-36.365168	8.096136	-1.715261	-1.706070	-7.047468	-4.339284	1.349854	0.222412	-1.490234
25298		-39.549843	13.521280	-6.935935	-1.792047	-5.943367	-4.147875	1.260498	0.302002	-1.577637
25299		-40.181367	14.085572	-13.426670	-2.403633	-4.776555	-3.265295	1.179932	0.377686	-1.639160
25300		-39.500434	13.049472	-20.255795	-2.837827	-3.602726	-1.715267	1.125977	0.442383	-1.672607
25301		-39.487035	16.969532	-25.846412	-2.815523	-2.184447	-0.469935	1.094238	0.487793	-1.684326
25302		-39.977800	16.443108	-27.110797	-2.180897	-0.937274	0.046480	1.086670	0.520264	-1.678467
25303		-39.545776	11.718264	-27.034576	-1.156531	-0.040104	-0.019708	1.084473	0.524658	-1.663574
25304		-30.162453	1.975644	-28.329883	0.595478	1.096032	-0.069497	1.120117	0.496582	-1.645752
25305		-26.444853	10.153103	-26.373496	2.117663	2.971273	0.248847	1.193115	0.449219	-1.597412
25306		-13.721485	-5.940960	-19.044395	2.889776	4.947034	1.838057	1.306396	0.367432	-1.531494
25307		-10.999492	-4.432156	22.897032	1.803813	6.413017	4.249603	1.422119	0.279053	-1.424561
25308		-30.992123	-6.021790	31.770842	2.180969	5.884133	4.209609	1.503418	0.177734	-1.326172
25309		-44.122272	0.065136	28.041826	3.592476	4.139652	3.244091	1.549561	0.091309	-1.258057
25310		-16.270625	6.377221	13.770929	2.234519	2.067683	2.686029	1.564453	0.032959	-1.205811
25311		-19.993851	14.543298	9.223144	1.493045	0.312752	1.461128	1.550049	0.002686	-1.188232
25312		-19.113164	4.080985	5.513900	0.720955	-0.806757	0.784448	1.535156	-0.008301	-1.175293
25313		-7.195058	1.048989	13.233843	0.679451	-0.846590	0.294959	1.520020	-0.010498	-1.162354
25314		1.134335	-5.820917	11.339827	0.658888	-0.447989	0.164828	1.511230	-0.006104	-1.143311
25315		-11.545251	-1.572866	7.852676	0.683194	-0.515267	0.185458	1.494141	-0.012695	-1.128418
25316		-9.741200	-3.870319	9.250614	0.672969	-0.515079	0.190597	1.485840	-0.021240	-1.106934
25317		-7.268003	-3.064067	10.971808	0.571947	-0.263218	0.229789	1.477295	-0.023438	-1.083252
25318		-7.598423	1.037307	11.950315	0.458394	-0.101490	0.180274	1.470947	-0.031982	-1.053223
25319		-4.898769	-3.029985	11.036499	0.320621	0.249937	0.195128	1.475586	-0.038330	-1.019043
25320		-7.428014	-3.975004	11.385670	0.298471	0.464426	0.201039	1.473389	-0.040527	-0.978271
25321		-8.355122	-2.024550	11.959634	0.296147	0.783900	0.316230	1.462891	-0.044678	-0.929199
25322		-4.709494	-3.868719	14.671259	0.507347	1.539539	0.406050	1.473877	-0.051025	-0.875488
25323		-4.858923	-3.594938	17.766100	0.287309	2.941279	0.522644	1.480957	-0.061523	-0.793945
25324		-1.694634	-1.545428	18.727547	-0.010235	4.267203	0.642393	1.500977	-0.074219	-0.695313
25325		1.173366	-1.677615	17.961941	-0.153793	5.617445	0.859556	1.514404	-0.084717	-0.581787
25326		0.703011	1.370689	14.671703	-0.428671	6.848282	1.459521	1.534668	-0.099609	-0.455322
25327		-3.438925	0.470261	11.467128	-0.353350	7.616884	1.777869	1.541992	-0.120850	-0.307373
25328		-5.714590	0.000539	10.149139	-0.067492	8.056919	1.758931	1.527832	-0.146484	-0.174316
25329		-3.651894	-3.467815	7.935842	-0.012611	8.527946	1.899946	1.519775	-0.167725	-0.026367
25330		-15.916371	-6.884709	6.586745	0.425320	8.725651	2.153753	1.484131	-0.197754	0.108643
25331		-28.011454	-5.802355	3.886882	0.957346	7.613797	2.153367	1.443359	-0.215088	0.211182
25332		-19.791783	-3.010580	4.766530	0.756193	6.269274	2.226039	1.403076	-0.243164	0.294922
25333		-14.668391	-4.987096	7.131882	0.522529	5.267473	2.487179	1.358398	-0.269043	0.354980
25334		-8.098609	-2.955564	4.563618	0.067131	4.810682	2.546367	1.322266	-0.297363	0.406494
25335		-8.856191	-0.858179	4.803859	-0.235625	4.704042	2.900245	1.268799	-0.318848	0.455811
25336		-9.444005	-0.108212	5.655496	-0.496864	4.303829	2.983614	1.235107	-0.353760	0.494873
25337		-11.058038	1.678162	10.347057	-0.853910	3.720894	2.920133	1.192627	-0.386230	0.516357
25338		-11.428506	1.787523	14.971717	-1.277970	3.037693	2.981187	1.154785	-0.423096	0.529785
25339		-11.399436	-0.820220	15.867871	-1.383445	2.504238	2.984639	1.127441	-0.460205	0.538818
25340		-10.857838	-2.803446	16.934938	-1.218467	2.028995	3.070913	1.102295	-0.488525	0.541260
25341		-8.706848	-4.822791	17.071864	-0.782211	1.746462	3.229687	1.079590	-0.523193	0.550293
25342		-6.627525	-4.309299	17.469900	-0.326972	1.676737	3.394210	1.050049	-0.555664	0.559326
25343		-6.074676	-3.261806	18.221405	-0.105460	1.709160	3.356175	1.027344	-0.594727	0.572510
25344		-6.035470	-4.060323	18.710515	-0.012472	1.807222	3.258456	0.997803	-0.627441	0.590088
25345		-7.857687	-5.345326	19.422658	0.127246	1.868708	3.235032	0.972900	-0.657715	0.605469
25346		-10.887903	-7.573013	20.396739	0.429076	1.746004	3.100578	0.947754	-0.692627	0.625244
25347		-14.713056	-10.508004	20.442634	1.006487	1.294649	2.777033	0.935303	-0.707764	0.644531
25348		-17.144338	-11.297445	19.782662	1.783816	0.392111	2.155743	0.929199	-0.722900	0.670410
25349		-16.207556	-8.973066	18.534485	2.156411	-0.745826	1.119760	0.944580	-0.727051	0.681396
25350		-13.210447	-7.044653	16.863249	1.880753	-1.664388	-0.084962	0.968262	-0.720459	0.677002
25351		-9.385444	-7.948936	14.669169	1.375988	-2.181590	-1.083144	1.002686	-0.713867	0.677246
25352		-6.567847	-9.779033	12.692329	1.192273	-2.404458	-1.696994	1.052246	-0.698486	0.672852
25353		-6.939389	-9.886056	12.348016	1.263369	-2.684254	-2.060526	1.110352	-0.683350	0.660156
25354		-9.394824	-7.522950	12.376568	1.160834	-3.319627	-2.460014	1.166260	-0.663574	0.636475
25355		-9.248909	-5.674745	12.645580	0.670899	-4.185694	-2.947428	1.241455	-0.637451	0.593750
25356		-8.040842	-6.591151	11.798836	0.065317	-4.952170	-3.306406	1.319092	-0.620117	0.536133
25357		-7.483024	-7.527586	10.402005	-0.286312	-5.651288	-3.460580	1.398438	-0.593994	0.465576
25358		-7.025720	-7.053847	9.443932	-0.558606	-6.080382	-3.511059	1.479980	-0.559326	0.364746
25359		-7.827971	-6.664280	8.774053	-0.891867	-6.242991	-3.604824	1.552734	-0.526855	0.257813
25360		-8.556381	-7.125150	8.689228	-1.131384	-6.275037	-3.769360	1.618652	-0.488037	0.144043
25361		-9.752962	-6.680489	9.787925	-1.282692	-6.243753	-3.950963	1.666992	-0.436035	0.019531
25362		-12.800566	-4.538371	12.294515	-1.636757	-6.298722	-4.192693	1.717041	-0.379883	-0.115967
25363		-16.372593	-3.313400	13.584634	-2.154904	-6.709941	-4.549792	1.760498	-0.308594	-0.266602
25364		-15.999987	-4.087496	13.748321	-2.431387	-7.220921	-4.788285	1.772949	-0.226563	-0.436768
25365		-14.570582	-3.932781	13.813060	-2.421249	-7.483244	-4.817814	1.768311	-0.146973	-0.600830
25366		-14.777529	-1.531451	14.174889	-2.357514	-7.476994	-4.817615	1.754395	-0.052002	-0.764893
25367		-16.587781	3.657532	14.636899	-2.536572	-7.353505	-4.970802	1.714111	0.053711	-0.927246
25368		-19.623613	3.775305	13.508409	-2.877239	-7.275536	-5.034706	1.658691	0.150635	-1.083252
25369		-23.591430	3.454764	11.479263	-2.592778	-7.247833	-4.642365	1.594971	0.247559	-1.237061
25370		-28.736261	5.512666	9.069188	-1.978045	-7.243693	-3.841551	1.496826	0.322998	-1.379883
25371		-32.055632	9.668835	5.823624	-1.633324	-7.076474	-2.874596	1.394775	0.389404	-1.494873
25372		-36.013396	11.974510	0.535867	-1.837308	-6.618007	-1.849285	1.289063	0.438721	-1.609619
25373		-39.540883	10.352951	-6.318743	-2.158104	-6.016295	-0.744869	1.187500	0.492432	-1.692383
25374		-40.313222	9.759817	-13.551693	-2.361380	-5.227178	0.271075	1.110352	0.528809	-1.746826
25375		-39.770343	12.666573	-20.997670	-2.402536	-3.960706	0.658009	1.057129	0.559082	-1.775391
25376		-38.391182	14.378156	-25.702234	-2.069362	-2.265040	0.262218	1.025635	0.595703	-1.797607
25377		-37.086120	13.139231	-27.699088	-1.052997	-0.599481	-0.603574	1.020752	0.615234	-1.795898
25378		-33.739122	11.850732	-26.255130	0.488198	0.863289	-1.364004	1.044678	0.611084	-1.789307
25379		-30.463529	10.883702	-20.866358	1.635302	2.066602	-2.119735	1.082031	0.595947	-1.775879
25380		-29.582906	13.557750	-22.478667	2.687731	3.138245	-1.906449	1.142090	0.550537	-1.747070
25381		-21.723679	-1.132906	-33.683372	3.936945	4.532758	1.491316	1.267334	0.434082	-1.688721
25382		-17.323656	15.353329	16.311333	2.081875	7.591867	6.044029	1.433594	0.326416	-1.581299
25383		-47.734325	-13.641059	32.800556	0.683858	6.234070	4.952124	1.538818	0.220703	-1.482666
25384		-25.540771	-22.342405	17.833054	3.312694	5.414721	3.824537	1.624756	0.110596	-1.392822
25385		-45.549158	3.651977	25.578216	4.329388	2.240012	1.460453	1.639893	0.039307	-1.348633
25386		-21.234020	39.671253	16.296702	1.587033	0.427022	1.694591	1.632324	0.009033	-1.322510
25387		-12.924960	0.388109	8.469464	0.202810	-0.380486	0.620676	1.619385	0.002441	-1.303223
25388		-5.837292	0.347859	11.721695	0.335722	-0.310394	0.021128	1.602295	-0.001709	-1.275391
25389		-0.770893	-2.544960	10.573377	0.462745	-0.168951	0.082467	1.593750	-0.003906	-1.254150
25390		-11.934043	0.161822	7.953969	0.522574	-0.237543	0.039059	1.576172	-0.001709	-1.235107
25391		-8.646429	-4.787332	11.443920	0.435307	-0.194255	-0.004334	1.560791	0.004639	-1.203125
25392		-6.393972	-4.921375	9.889140	0.381905	0.043380	0.096746	1.548096	0.000488	-1.186035
25393		-7.421625	-1.060717	10.251925	0.326076	0.140610	0.060608	1.545654	0.007080	-1.156250
25394		-3.370179	-3.590206	9.892501	0.193562	0.411372	0.098990	1.539307	0.002686	-1.121826
25395		-8.300254	-3.652180	11.140609	0.229326	0.486194	0.141717	1.541748	-0.001465	-1.100586
25396		-8.876928	-2.031248	12.105164	0.245587	0.784728	0.245930	1.535400	-0.003662	-1.055664
25397		-3.939588	-2.404402	14.912521	0.321451	1.742546	0.389866	1.550537	-0.005615	-0.989258
25398		-5.467113	-5.392821	16.860970	0.153129	2.901227	0.483027	1.570557	-0.016113	-0.918213
25399		-2.209450	-1.392235	16.600056	-0.156555	4.081119	0.651756	1.601074	-0.017822	-0.819824
25400		2.770884	-2.312312	16.042885	-0.252170	5.306617	0.753776	1.623535	-0.030518	-0.701904
25401		-4.063106	0.590540	14.046542	-0.468985	6.324016	1.131340	1.649902	-0.038818	-0.577637
25402		-3.363993	0.658378	11.514271	-0.456599	7.015384	1.371780	1.670410	-0.062256	-0.433838
25403		-3.155250	-0.445680	10.809518	-0.395010	7.541625	1.518847	1.677734	-0.085449	-0.283691
25404		-4.667174	-1.413706	7.803038	-0.252939	8.273464	1.619665	1.674316	-0.111084	-0.120605
25405		-8.967242	-3.855621	6.116089	-0.017427	8.719176	1.751992	1.649170	-0.134521	0.035645
25406		-23.073177	-4.997046	3.970117	0.338433	8.136481	1.587378	1.622070	-0.160400	0.174805
25407		-23.988845	-3.298782	5.344969	0.497585	7.004332	1.714042	1.577148	-0.181885	0.281982
25408		-13.710459	-5.363380	6.126796	0.555914	6.104069	2.032250	1.525879	-0.205566	0.374023
25409		-14.752398	-4.624538	7.478190	0.430817	5.410547	2.190729	1.487549	-0.227295	0.451172
25410		-11.115588	-4.756419	5.503886	0.759264	4.904012	2.448492	1.431885	-0.253174	0.506836
25411		-12.024629	-1.803555	6.424306	1.059535	4.454609	2.479374	1.386963	-0.268311	0.568848
25412		-7.624380	1.077165	7.377535	1.046955	4.094915	2.372357	1.337646	-0.292236	0.611816
25413		-9.566615	7.916042	13.583557	0.105261	3.824734	2.457153	1.301758	-0.320557	0.648438
25414		-12.599743	6.697940	17.557216	-1.361536	3.184516	2.899139	1.259277	-0.357422	0.668213
25415		-10.597301	2.379936	17.653388	-1.967137	2.594620	3.364599	1.217529	-0.411865	0.677490
25416		-9.587955	0.146199	18.120221	-2.174888	2.212552	3.800197	1.182129	-0.461670	0.686523
25417		-7.785043	-3.307033	17.525298	-1.985355	2.115937	4.164664	1.149170	-0.522461	0.689697
25418		-7.518940	-4.994645	17.718235	-1.543871	2.183240	4.425056	1.109619	-0.576904	0.703125
25419		-9.034652	-5.446038	18.338141	-1.147355	2.238900	4.393449	1.072266	-0.635498	0.718994
25420		-11.220438	-5.265324	19.151126	-0.977126	2.142390	4.054461	1.034424	-0.676758	0.723633
25421		-14.379941	-6.989641	20.221724	-0.921020	1.851386	3.495373	1.009521	-0.722412	0.737061
25422		-17.077712	-11.375928	19.837789	-0.416367	1.223453	2.916605	0.990967	-0.752686	0.752686
25423		-17.067876	-13.706610	18.988876	0.630577	0.338192	2.329811	0.984863	-0.767822	0.759277
25424		-15.207358	-11.837768	18.312198	1.516460	-0.486482	1.602052	0.994141	-0.780762	0.776611
25425		-13.367007	-8.203595	17.797209	1.751548	-1.236122	0.667916	1.017822	-0.780762	0.778809
25426		-11.894912	-5.823788	16.717470	1.222511	-1.849045	-0.259039	1.059326	-0.787109	0.764160
25427		-11.020008	-6.571122	14.055984	0.594822	-2.439429	-0.978545	1.100342	-0.780518	0.747314
25428		-9.651988	-7.783382	12.025197	0.355413	-3.155313	-1.453000	1.163330	-0.776123	0.721924
25429		-8.383305	-7.349604	9.909705	0.373075	-3.909553	-1.777229	1.225830	-0.769531	0.672852
25430		-6.126009	-5.313235	8.516277	0.299284	-4.577229	-2.050303	1.301514	-0.760742	0.619629
25431		-4.812642	-4.307690	8.018874	-0.130029	-4.932976	-2.350797	1.379150	-0.743408	0.542725
25432		-6.012386	-4.367992	7.394250	-0.610041	-5.223393	-2.663663	1.452393	-0.728271	0.461670
25433		-7.444142	-4.943033	7.111571	-0.910492	-5.666150	-2.925107	1.523438	-0.708740	0.363281
25434		-8.454002	-5.091599	6.793437	-1.066666	-6.098124	-3.158494	1.593994	-0.678467	0.250000
25435		-8.576662	-5.143561	6.598017	-1.124111	-6.388616	-3.374782	1.653564	-0.641846	0.123535
25436		-8.473823	-4.961751	6.977236	-1.168683	-6.473751	-3.610715	1.706543	-0.600830	-0.011719
25437		-9.311028	-4.419024	7.998604	-1.242248	-6.450877	-3.830586	1.748047	-0.546875	-0.145020
25438		-11.537364	-3.774971	9.601647	-1.412886	-6.465832	-4.026965	1.779053	-0.495117	-0.280518
25439		-14.324653	-3.286648	10.508887	-1.614671	-6.690466	-4.212874	1.794189	-0.430420	-0.437500
25440		-15.206442	-3.266213	11.111023	-1.762631	-6.978995	-4.354850	1.806885	-0.357178	-0.599121
25441		-15.639311	-2.414123	11.333612	-1.824508	-7.160040	-4.435134	1.795898	-0.283936	-0.756348
25442		-16.875894	-1.567289	11.269010	-1.923002	-7.190039	-4.514958	1.769287	-0.197754	-0.920654
25443		-19.090606	-1.327318	10.952282	-1.971691	-7.078319	-4.565104	1.720703	-0.104980	-1.067871
25444		-22.343399	0.976824	11.173623	-1.908190	-6.842962	-4.579669	1.665771	-0.014404	-1.223633
25445		-28.536430	2.137395	9.898836	-1.819412	-6.767273	-4.514300	1.593262	0.075928	-1.362305
25446		-33.441236	5.945124	6.968573	-1.786740	-6.887612	-4.247964	1.501221	0.175049	-1.492920
25447		-34.926528	11.060868	2.588210	-2.144270	-6.732795	-3.799290	1.394043	0.263428	-1.604004
25448		-34.879495	14.577407	-2.832090	-3.010235	-6.019247	-2.935839	1.295654	0.358154	-1.689453
25449		-35.314798	12.519824	-9.154139	-3.881540	-5.035438	-1.567277	1.212646	0.442383	-1.742676
25450		-37.011106	11.226313	-16.113844	-3.952394	-4.021516	-0.128910	1.138916	0.515869	-1.770020
25451		-38.621523	13.207933	-21.137469	-3.371641	-2.950492	0.735055	1.106934	0.565674	-1.790283
25452		-37.483574	14.048999	-23.967967	-2.670644	-2.009186	0.835545	1.077637	0.597900	-1.805908
25453		-33.444146	8.439668	-25.493199	-1.547034	-0.946043	0.595591	1.072998	0.608887	-1.799805
25454		-33.212590	7.967945	-23.040828	-0.041411	0.136371	0.061582	1.079590	0.611084	-1.802002
25455		-29.650445	9.495945	-19.491464	0.809481	1.196109	-1.109595	1.106201	0.593750	-1.780029
25456		-18.525785	2.874706	-20.232075	2.363531	2.741525	-1.582660	1.167969	0.554932	-1.761963
25457		-17.788389	3.187850	-19.965813	3.573562	4.510535	-0.250893	1.266113	0.473145	-1.712891
25458		4.069843	0.250336	1.908876	3.701077	5.903315	3.345573	1.406738	0.347900	-1.626709
25459		-31.034275	10.759305	34.718505	1.608152	6.724257	5.910010	1.529785	0.229248	-1.534180
25460		-40.836641	-6.122857	20.198948	2.654858	5.464060	5.357304	1.623047	0.097412	-1.452393
25461		-39.307835	-13.488511	22.730630	3.357547	2.682944	3.194883	1.656006	0.006592	-1.390869
25462		-22.070194	21.423977	15.776298	2.722792	1.323876	0.943347	1.663818	-0.032227	-1.353760
25463		-18.155754	21.136649	13.516208	0.348942	-0.004252	0.608807	1.646729	-0.040771	-1.330078
25464		-9.933731	2.881295	12.771380	-0.001266	-0.237708	-0.093157	1.640137	-0.034424	-1.302490
25465		1.631845	-1.484780	14.392951	0.031880	0.220547	-0.093536	1.637939	-0.031982	-1.268311
25466		-4.263329	-2.361119	6.726142	0.080863	0.314331	0.065589	1.622559	-0.027588	-1.238525
25467		-14.311265	-5.129713	6.706166	0.193862	0.128033	0.105517	1.616211	-0.027588	-1.210938
25468		-7.398377	-6.309671	7.930102	0.246077	0.091951	0.127212	1.603027	-0.023193	-1.185303
25469		-8.362530	-4.663438	9.349166	0.224583	0.145740	0.142247	1.592285	-0.023193	-1.161865
25470		-7.759720	-5.325914	9.564370	0.258622	0.247532	0.252529	1.583496	-0.025391	-1.127686
25471		-5.620683	-3.185185	10.533552	0.325128	0.338446	0.302686	1.581543	-0.027344	-1.102051
25472		-10.497222	0.483224	12.284537	0.250468	0.495225	0.303094	1.579346	-0.027344	-1.069824
25473		-6.392060	-2.477119	12.578472	0.211557	1.023704	0.342235	1.579590	-0.029297	-1.024902
25474		-6.634523	-2.941550	15.905684	0.021691	1.996979	0.490031	1.590576	-0.031250	-0.967041
25475		-4.625535	-4.087641	18.545587	0.367568	3.326400	0.550972	1.619141	-0.043945	-0.872559
25476		0.500928	-2.764281	19.210584	-0.078680	4.669199	0.661170	1.645752	-0.050049	-0.767578
25477		0.365198	0.894510	16.911299	-0.269423	5.879305	0.983066	1.669922	-0.060547	-0.647705
25478		-2.523137	2.112341	13.265507	-0.530422	6.879506	1.273419	1.703125	-0.075195	-0.508301
25479		-4.062557	-0.187947	11.764235	-0.472853	7.544907	1.458814	1.715088	-0.100830	-0.351563
25480		-3.210633	-1.899926	7.117912	-0.362314	8.088698	1.645656	1.720459	-0.128662	-0.195068
25481		-9.158701	-5.869551	6.537665	-0.209919	8.445472	1.810670	1.704102	-0.154053	-0.030029
25482		-25.029076	-6.124128	4.794561	0.279882	8.028474	2.038503	1.674805	-0.184326	0.104980
25483		-26.055110	-4.043419	2.513260	0.481970	6.677145	2.035350	1.636475	-0.209961	0.214355
25484		-18.911034	-5.323997	3.588591	0.315328	5.406058	2.127617	1.600586	-0.238037	0.304443
25485		-10.691553	-3.420597	1.831471	0.302748	4.354255	2.364261	1.556152	-0.272705	0.364746
25486		-5.401115	1.690604	3.296520	-0.247989	4.236317	3.068362	1.507324	-0.311768	0.425049
25487		-8.026924	5.315891	7.061996	-1.318200	3.931014	3.433473	1.454834	-0.368164	0.470459
25488		-11.491966	1.877427	10.956106	-2.329646	3.510757	3.620939	1.404297	-0.422607	0.499023
25489		-9.136698	-1.678139	13.029671	-2.506038	3.029330	4.039464	1.355957	-0.476807	0.514648
25490		-9.596289	-2.337954	13.865778	-2.189365	2.812327	4.217914	1.307861	-0.533447	0.532471
25491		-10.909999	-4.169898	15.083610	-1.876856	2.607837	4.089951	1.261475	-0.585449	0.545898
25492		-9.510919	-7.388327	15.159918	-1.369153	2.417522	3.916308	1.217285	-0.633301	0.561523
25493		-8.491021	-9.144216	15.480087	-0.614919	2.392927	3.794493	1.179443	-0.672363	0.574707
25494		-8.351005	-8.770646	16.045018	0.101019	2.427400	3.549235	1.141357	-0.707275	0.604980
25495		-7.962618	-8.130493	16.715179	0.610311	2.484591	3.147995	1.103027	-0.726807	0.637207
25496		-7.897191	-7.424781	17.146412	0.923395	2.542682	2.718330	1.071289	-0.752686	0.671631
25497		-9.629285	-7.569671	18.038024	1.119640	2.521122	2.334920	1.041260	-0.765869	0.703857
25498		-12.970661	-8.766317	18.865743	1.314942	2.324558	1.985889	1.015625	-0.776611	0.733887
25499		-16.281258	-10.867224	18.936692	1.775963	1.781884	1.622338	1.004883	-0.778809	0.768066
25500		-18.077921	-10.300492	18.306718	2.380031	0.799287	1.185051	1.002686	-0.778564	0.797852
25501		-17.047117	-7.157220	17.091625	2.590345	-0.379606	0.535699	1.024170	-0.771973	0.815186
25502		-13.523928	-5.148727	15.552485	2.243997	-1.416148	-0.216505	1.050049	-0.760986	0.821533
25503		-9.897384	-4.767739	13.479880	1.671100	-2.125613	-0.870383	1.090820	-0.748047	0.808594
25504		-7.768035	-5.536153	11.458745	1.250209	-2.592026	-1.348826	1.144775	-0.737061	0.798096
25505		-7.766414	-5.752707	9.805011	1.090025	-3.160258	-1.693482	1.207275	-0.721680	0.772461
25506		-6.504949	-4.969940	8.784479	0.955492	-3.824926	-1.961386	1.276367	-0.706299	0.734131
25507		-4.685113	-3.664560	8.179090	0.616585	-4.333747	-2.207153	1.343018	-0.688965	0.678467
25508		-3.737900	-3.447412	7.681958	0.109765	-4.736607	-2.441462	1.416016	-0.665039	0.610107
25509		-4.195297	-3.834557	7.555700	-0.396199	-4.994017	-2.553368	1.485107	-0.652100	0.541748
25510		-7.601934	-3.486823	7.789531	-0.802687	-5.419966	-2.605089	1.558105	-0.630371	0.447754
25511		-10.907180	-2.659768	8.164434	-1.226862	-6.143422	-2.737167	1.626709	-0.608887	0.325928
25512		-10.858727	-2.492674	7.937234	-1.674020	-6.823102	-2.940144	1.688721	-0.576416	0.188721
25513		-9.250763	-2.861546	7.210180	-2.023429	-7.128154	-3.122309	1.737305	-0.537842	0.034424
25514		-8.748878	-3.470081	7.181590	-2.200674	-7.098671	-3.234022	1.777100	-0.499023	-0.113525
25515		-10.010979	-3.568863	8.004624	-2.237648	-6.994206	-3.282415	1.797363	-0.456055	-0.272461
25516		-12.283334	-3.182592	9.359260	-2.256034	-6.984185	-3.296941	1.819336	-0.399902	-0.429443
25517		-14.413647	-2.703597	10.762428	-2.328520	-7.107851	-3.371693	1.815186	-0.339844	-0.593018
25518		-15.916087	-2.350815	12.014082	-2.446225	-7.200248	-3.592747	1.802246	-0.275146	-0.758789
25519		-17.540797	-1.761622	13.193016	-2.546912	-7.114684	-3.980872	1.773438	-0.191162	-0.918457
25520		-20.569585	-1.209186	13.435249	-2.528012	-6.904663	-4.478012	1.727051	-0.098389	-1.076416
25521		-24.973816	-0.885515	12.010690	-2.241121	-6.651829	-4.988455	1.673584	0.011475	-1.224121
25522		-29.675334	-0.307466	8.682718	-1.514844	-6.482668	-5.328353	1.598633	0.112793	-1.352295
25523		-33.491814	2.289545	4.026899	-0.556614	-6.343158	-5.405806	1.508789	0.209961	-1.478516
25524		-34.386100	5.516782	-1.078048	0.177069	-5.985507	-5.097435	1.415527	0.276611	-1.576416
25525		-34.148467	6.924195	-6.549377	0.211518	-5.304575	-4.166084	1.331055	0.334473	-1.663330
25526		-33.940935	9.702417	-11.766591	-0.430918	-4.385400	-2.854377	1.247070	0.386230	-1.724365
25527		-34.625133	13.328382	-18.059653	-1.350407	-3.328286	-1.991398	1.186768	0.440186	-1.760010
25528		-33.102676	13.412991	-22.719311	-1.825499	-2.147405	-1.543888	1.152832	0.483398	-1.777832
25529		-34.622106	10.576441	-23.805308	-1.461625	-1.149532	-1.300574	1.140625	0.524414	-1.780762
25530		-31.742185	5.536633	-25.788985	-0.027182	-0.442092	-0.823049	1.125732	0.520020	-1.795898
25531		-28.416726	10.959772	-24.352300	1.147969	0.609855	-0.054792	1.155029	0.481201	-1.788574
25532		-33.053976	5.874367	-36.149802	3.153290	1.887346	2.003289	1.225586	0.375244	-1.767090
25533		-26.632971	26.919708	-25.629352	2.453270	5.753742	4.415194	1.371826	0.282715	-1.664307
25534		-58.491031	8.267270	30.257913	-0.171026	6.940735	4.050997	1.484131	0.233398	-1.568848
25535		-20.259154	-26.389284	25.423319	0.689099	4.729356	2.958530	1.569092	0.155762	-1.475098
25536		-2.843193	-25.906121	17.708951	2.316988	5.215250	3.152762	1.639160	0.069580	-1.391846
25537		-28.924284	11.641182	14.140908	3.094863	2.164758	1.893811	1.662842	0.000244	-1.341553
25538		-27.834421	24.145901	5.955152	1.146792	-0.022398	1.910831	1.646484	-0.034424	-1.330322
25539		-15.224847	1.782158	8.567994	0.648143	-0.882903	0.586759	1.625000	-0.041016	-1.315430
25540		-2.042328	1.044707	15.067541	0.405164	-0.502188	0.295610	1.605957	-0.051758	-1.289551
25541		-5.819392	-2.598482	11.734605	0.373543	-0.285538	0.155710	1.596924	-0.042969	-1.268311
25542		-12.785002	0.474160	11.326826	0.468156	-0.323104	0.066522	1.582031	-0.047363	-1.247070
25543		-6.841355	-3.419433	10.681573	0.397405	-0.162492	0.081950	1.566650	-0.047363	-1.221436
25544		-7.213678	-3.367221	9.869957	0.308325	0.060054	0.029121	1.560059	-0.040771	-1.200195
25545		-7.140931	-0.432381	11.384902	0.180229	0.158383	-0.095791	1.559814	-0.034180	-1.172607
25546		-6.181290	-4.353559	10.773016	0.150190	0.455623	-0.028796	1.549072	-0.029785	-1.144775
25547		-9.696991	-2.987776	11.381020	0.136744	0.544209	-0.021884	1.550781	-0.018799	-1.100098
25548		-6.817537	-1.253655	12.246310	0.094574	0.798888	0.014949	1.542236	-0.020996	-1.068115
25549		-5.207212	-4.357058	14.369786	0.455543	1.643826	0.078055	1.564209	-0.022949	-1.010254
25550		-3.961160	-2.262519	17.790768	-0.017396	3.091917	0.194054	1.583496	-0.016113	-0.928955
25551		-0.068408	-2.849484	18.401588	-0.157705	4.458526	0.369008	1.612061	-0.020020	-0.823975
25552		0.366802	-2.014752	16.812438	-0.264682	5.717070	0.563291	1.649414	-0.023926	-0.708252
25553		-3.166124	1.944436	13.986504	-0.554844	6.704970	0.973475	1.669434	-0.034424	-0.564697
25554		-3.098444	2.409330	12.136056	-0.629780	7.326258	1.189776	1.693848	-0.051270	-0.418945
25555		-2.461014	0.901097	9.313577	-0.611939	7.806010	1.204557	1.701172	-0.068115	-0.262451
25556		-4.708340	-1.536795	6.512101	-0.660436	8.394162	1.247198	1.699707	-0.082764	-0.104004
25557		-16.300638	-3.753685	5.849620	-0.241244	8.430463	1.263686	1.676514	-0.099854	0.052246
25558		-26.959051	-4.615125	4.408944	-0.024510	7.480269	1.230602	1.640381	-0.119141	0.176514
25559		-23.039313	-7.166994	1.574460	0.257426	5.948345	1.517599	1.604248	-0.140625	0.268555
25560		-20.357578	-10.970890	0.022056	1.197964	4.683154	2.205815	1.557129	-0.162354	0.339355
25561		-13.306079	-1.051524	1.603006	1.864747	3.658459	2.630179	1.525391	-0.188232	0.390869
25562		-5.138507	9.358277	4.009007	0.208773	3.580198	2.975447	1.477051	-0.235840	0.438477
25563		-7.014508	8.584991	7.317767	-1.782077	3.569585	3.172497	1.428467	-0.281494	0.470947
25564		-8.949913	1.877115	10.070873	-3.131213	3.202711	3.605949	1.382324	-0.342285	0.495361
25565		-8.113130	-3.546638	10.684870	-3.124111	2.976162	4.114091	1.340820	-0.398926	0.513184
25566		-9.272987	-3.966817	12.311673	-2.462072	2.815188	4.208403	1.292480	-0.457520	0.524658
25567		-8.995091	-4.265032	13.897219	-1.887168	2.778993	3.974773	1.246338	-0.507568	0.538086
25568		-9.290913	-7.392322	14.922394	-1.174116	2.932101	3.747892	1.204102	-0.548828	0.559814
25569		-9.036029	-8.681839	16.021052	-0.315540	3.017596	3.705295	1.157227	-0.576904	0.590088
25570		-9.133031	-7.514394	17.433623	0.339028	3.056920	3.550005	1.123779	-0.622559	0.626953
25571		-9.171717	-6.467519	18.596306	0.606141	3.069946	3.236095	1.083252	-0.644287	0.655029
25572		-9.086885	-6.305406	19.519867	0.645099	3.077977	2.909764	1.040527	-0.666016	0.693604
25573		-10.713761	-6.991361	20.434477	0.627187	3.051931	2.631522	1.008545	-0.683350	0.721436
25574		-14.307714	-8.931571	20.717391	0.706418	2.819959	2.395261	0.982910	-0.698486	0.749512
25575		-17.086829	-11.451080	20.220523	1.112225	2.238455	2.129717	0.955322	-0.722412	0.783936
25576		-18.654280	-11.870081	19.740957	1.720875	1.358491	1.736192	0.953613	-0.730957	0.816162
25577		-18.550544	-9.612899	18.803124	2.088129	0.274042	1.108577	0.953369	-0.726563	0.839600
25578		-17.044000	-6.453475	17.453114	1.883901	-0.879767	0.306671	0.983887	-0.726563	0.841797
25579		-13.498717	-5.615719	15.298449	1.298228	-1.830895	-0.486560	1.018555	-0.722168	0.842041
25580		-10.049967	-6.251081	12.733178	0.811155	-2.501279	-1.141385	1.070557	-0.719727	0.827148
25581		-7.301886	-7.304392	10.012097	0.658798	-3.048406	-1.618838	1.128662	-0.704346	0.805908
25582		-5.309690	-6.941992	8.238290	0.688063	-3.467281	-1.903496	1.191406	-0.695557	0.778320
25583		-4.566700	-5.186611	7.324548	0.526364	-3.816635	-2.192963	1.262451	-0.682617	0.739990
25584		-4.320871	-4.323557	6.798015	0.160974	-4.216965	-2.549893	1.331299	-0.660889	0.690918
25585		-4.834188	-3.841613	6.778242	-0.258467	-4.644961	-2.898017	1.413330	-0.643311	0.616211
25586		-7.530800	-3.641873	6.879362	-0.669678	-5.126262	-3.218191	1.490479	-0.615234	0.541260
25587		-10.731684	-3.792544	6.579736	-0.950850	-5.757561	-3.534238	1.567627	-0.582764	0.442627
25588		-11.441031	-3.896344	6.127504	-1.045718	-6.357570	-3.779116	1.637695	-0.537354	0.322510
25589		-10.695225	-3.408445	6.100380	-1.055886	-6.728762	-3.932565	1.714355	-0.493896	0.198242
25590		-10.193247	-1.982349	6.623160	-1.130715	-6.809045	-4.030542	1.773438	-0.439941	0.054443
25591		-10.973801	-0.766415	7.479303	-1.329631	-6.797135	-4.103012	1.810547	-0.379639	-0.087646
25592		-11.693420	0.219655	8.626507	-1.553981	-6.852377	-4.093736	1.847656	-0.316895	-0.238281
25593		-12.349112	1.519767	10.034824	-1.815809	-7.013974	-3.991673	1.860596	-0.252197	-0.393066
25594		-13.015387	2.318211	11.395060	-2.125262	-7.171128	-3.818662	1.858398	-0.187744	-0.556885
25595		-14.800676	2.636548	12.485733	-2.385708	-7.278607	-3.648153	1.845459	-0.118896	-0.724854
25596		-17.869766	2.391694	13.468876	-2.445988	-7.368661	-3.536845	1.810303	-0.043457	-0.888672
25597		-23.068264	1.851003	13.436115	-2.236090	-7.495265	-3.530572	1.762207	0.036133	-1.059326
25598		-28.877910	1.132836	11.051024	-1.679294	-7.655542	-3.602407	1.687988	0.115723	-1.223633
25599		-33.354256	1.166230	6.692608	-0.920792	-7.714440	-3.670812	1.585693	0.184326	-1.377197
25600		-37.240314	3.200675	0.952115	-0.371819	-7.429653	-3.620914	1.477295	0.246582	-1.511230
25601		-38.910611	8.188214	-5.353405	-0.422331	-6.739819	-3.325901	1.369141	0.300049	-1.613281
25602		-36.923855	11.740307	-11.984100	-1.432886	-5.578606	-2.662869	1.275635	0.371094	-1.691895
25603		-36.459927	12.739661	-18.507520	-2.603142	-4.168968	-1.690829	1.210449	0.444580	-1.734131
25604		-37.916523	16.259536	-23.152089	-3.017604	-2.833351	-0.962331	1.163086	0.507324	-1.761230
25605		-36.492708	17.717900	-23.929814	-2.676422	-1.753321	-0.632625	1.133301	0.557129	-1.764404
25606		-36.672497	15.226387	-23.016841	-1.860408	-1.127812	-0.326847	1.114990	0.585205	-1.767090
25607		-32.405961	11.722775	-22.756497	-0.963385	-0.670762	0.219089	1.112793	0.587402	-1.762695
25608		-22.932172	5.719191	-24.427656	0.257822	0.507523	1.117891	1.142334	0.546387	-1.751221
25609		-24.292708	4.869211	-26.585764	1.757394	2.098429	2.138614	1.216553	0.464111	-1.726074
25610		-12.785279	2.987071	-12.497572	2.612785	4.233998	3.879182	1.334473	0.369385	-1.655273
25611		-35.742792	-8.894123	26.781903	0.201409	6.032550	4.165456	1.447510	0.298340	-1.561523
25612		-20.510008	-15.682741	22.425502	2.416930	5.581623	3.260799	1.541504	0.205566	-1.467529
25613		-17.795686	-11.577999	22.534242	3.378216	5.331703	2.696403	1.616455	0.102051	-1.373291
25614		-26.836540	22.036932	21.868078	2.894561	2.744686	2.548155	1.638184	0.028564	-1.318604
25615		-24.413127	13.508202	3.348892	0.750948	0.582824	2.801147	1.635010	-0.010498	-1.290039
25616		-21.399596	4.028403	4.665197	0.657070	-0.544186	0.646058	1.624756	-0.025635	-1.272705
25617		-1.924557	-2.879753	14.896244	0.505108	-0.517822	0.430811	1.601074	-0.036377	-1.251465
25618		-3.368768	-5.422276	10.062048	0.654919	-0.356248	0.383108	1.594727	-0.040771	-1.232178
25619		-15.568587	0.424896	10.758576	0.783349	-0.554664	0.269334	1.571045	-0.047363	-1.217041
25620		-7.440999	-1.934248	11.675997	0.687030	-0.366523	0.197858	1.553955	-0.055908	-1.195801
25621		-6.051516	-1.969829	10.901285	0.517655	-0.082469	0.152047	1.545410	-0.058105	-1.170166
25622		-8.722327	0.164160	11.016254	0.352706	0.056000	0.023121	1.541016	-0.053711	-1.140137
25623		-4.685029	-2.964664	11.057670	0.195641	0.472434	0.026849	1.534424	-0.051514	-1.110352
25624		-9.341639	-3.096902	11.826898	0.179595	0.637650	0.013516	1.538818	-0.053467	-1.071777
25625		-7.720757	-2.559052	12.050372	0.292032	1.079906	0.089091	1.541016	-0.046875	-1.018555
25626		-5.283445	-0.180609	16.753989	0.248216	2.237779	0.153780	1.556152	-0.046631	-0.947754
25627		-3.090342	-4.588551	18.844476	0.196784	3.519930	-0.059631	1.584473	-0.044189	-0.870605
25628		-0.362636	-1.800321	17.523776	-0.239483	4.827544	0.075955	1.613037	-0.048096	-0.759277
25629		1.309362	-1.923824	16.521014	-0.371590	6.074062	0.461174	1.637207	-0.052002	-0.628662
25630		-1.508529	-0.409343	13.175114	-0.564105	7.115935	0.911821	1.663818	-0.062256	-0.482910
25631		-4.282891	0.302714	11.573140	-0.473676	7.859827	1.254074	1.673096	-0.079102	-0.330811
25632		-2.303834	-3.001752	8.548632	-0.411229	8.468946	1.442141	1.674072	-0.102539	-0.165771
25633		-9.524092	-7.297315	6.954621	-0.048366	9.071294	1.695590	1.653320	-0.128174	0.005615
25634		-24.718310	-5.415498	4.295178	0.329006	8.398389	1.912694	1.628418	-0.153809	0.149170
25635		-27.377339	-7.859720	3.578521	0.382287	6.901540	1.955120	1.590088	-0.181885	0.254150
25636		-16.730471	-8.207363	5.062494	0.800822	5.664289	2.424893	1.543457	-0.212158	0.331543
25637		-14.722723	-8.142613	4.854215	1.015321	4.602240	2.772896	1.500977	-0.244629	0.400146
25638		-7.318420	-2.502757	5.211460	1.435411	4.294184	2.971363	1.454346	-0.274902	0.456055
25639		-5.600339	2.447890	5.904079	1.082887	4.231784	2.834049	1.409424	-0.298828	0.516113
25640		-7.116182	1.374344	8.213085	0.357639	4.265176	2.452322	1.355957	-0.324951	0.561279
25641		-8.366904	2.440023	13.352166	-0.360883	4.067238	2.478160	1.315674	-0.355225	0.602051
25642		-12.727100	-0.227497	16.527693	-0.934962	3.643818	2.797625	1.273193	-0.387939	0.630371
25643		-12.721607	-1.450499	18.136657	-1.007777	3.144760	3.075475	1.235107	-0.422607	0.656250
25644		-11.201553	-1.213509	19.821668	-1.138807	2.794230	3.229999	1.197510	-0.466064	0.673828
25645		-10.455410	-2.595451	20.039885	-1.305753	2.700258	3.294581	1.168213	-0.509521	0.691650
25646		-10.133527	-3.836909	20.517947	-1.291518	2.547365	3.346895	1.134766	-0.552979	0.702881
25647		-10.189802	-4.882689	21.038402	-1.174795	2.363548	3.282314	1.101318	-0.589844	0.720459
25648		-10.546455	-6.601970	21.529299	-0.923063	2.148456	3.234804	1.074219	-0.633301	0.740234
25649		-12.762106	-7.890654	22.318381	-0.629189	1.923582	3.147991	1.051758	-0.674561	0.751465
25650		-15.953501	-10.880760	21.489073	-0.204831	1.407426	2.935494	1.033203	-0.707031	0.762695
25651		-17.701314	-13.591066	20.656234	0.623010	0.410818	2.624197	1.029541	-0.730957	0.775879
25652		-16.272439	-11.993785	19.605648	1.420951	-0.736882	2.075942	1.038818	-0.754639	0.778564
25653		-12.668011	-8.517296	17.644186	1.596658	-1.735573	1.239631	1.062744	-0.756836	0.770020
25654		-9.299786	-6.548287	15.240025	1.142460	-2.414845	0.372391	1.097900	-0.767578	0.755615
25655		-6.515119	-7.385125	12.597944	0.551612	-2.781992	-0.360204	1.147949	-0.773926	0.730225
25656		-6.345439	-8.867906	9.889462	0.322881	-3.168877	-0.988655	1.197998	-0.773926	0.702637
25657		-6.225506	-9.038453	7.776539	0.463919	-3.778114	-1.499402	1.264893	-0.769531	0.656006
25658		-4.717192	-7.157931	7.047321	0.485405	-4.284951	-1.972935	1.333984	-0.756348	0.606934
25659		-3.596105	-5.475924	6.724413	0.166786	-4.609409	-2.457028	1.400879	-0.741211	0.538574
25660		-3.581893	-5.013023	6.911408	-0.356974	-4.839135	-2.865207	1.484619	-0.717285	0.465820
25661		-5.921503	-4.893764	7.074364	-0.880880	-5.207680	-3.170670	1.553223	-0.689209	0.375977
25662		-8.112964	-5.167742	7.172961	-1.305771	-5.731187	-3.411512	1.619141	-0.650391	0.251709
25663		-9.327017	-5.684927	6.982166	-1.534066	-6.211375	-3.576734	1.687500	-0.613525	0.129639
25664		-9.849392	-5.121425	7.108958	-1.632273	-6.551218	-3.688573	1.738037	-0.570313	-0.011963
25665		-10.284577	-4.007311	7.630373	-1.774133	-6.685997	-3.832973	1.773193	-0.516602	-0.160400
25666		-11.684933	-3.259769	8.226624	-1.981807	-6.714741	-4.014160	1.805908	-0.453857	-0.308838
25667		-13.407548	-3.733051	8.742414	-2.053125	-6.810285	-4.209153	1.814697	-0.389404	-0.463867
25668		-14.237147	-3.694218	9.929338	-1.942603	-6.886562	-4.338764	1.818848	-0.318115	-0.616699
25669		-15.446661	-1.737097	11.915009	-1.862259	-6.897096	-4.471237	1.807617	-0.238281	-0.778564
25670		-19.003576	0.583724	13.761577	-2.032009	-6.889999	-4.651230	1.780762	-0.149902	-0.934082
25671		-24.432969	0.677606	14.476545	-2.201627	-6.978664	-4.733574	1.732178	-0.052979	-1.092285
25672		-29.645873	0.043426	14.142193	-2.051935	-7.193109	-4.555283	1.664063	0.037598	-1.241699
25673		-35.487055	3.115749	12.340265	-1.818351	-7.394254	-4.250489	1.567627	0.132324	-1.389160
25674		-38.779848	7.821512	7.360507	-1.789583	-7.576513	-4.034375	1.462646	0.222656	-1.523926
25675		-38.138730	12.309165	0.647003	-2.087736	-7.260608	-3.661250	1.349121	0.315186	-1.630859
25676		-36.592112	12.522932	-6.889908	-2.709350	-6.323754	-2.765264	1.244385	0.401367	-1.716064
25677		-35.177968	11.255633	-14.268285	-3.028059	-5.001803	-1.366983	1.157471	0.474854	-1.760742
25678		-36.531236	15.507547	-20.812783	-2.868873	-3.457453	-0.375874	1.108154	0.524414	-1.787354
25679		-37.300491	17.521078	-24.418312	-2.425452	-2.064265	-0.169990	1.076416	0.572021	-1.799072
25680		-35.508114	14.162531	-26.032731	-1.518612	-0.873029	-0.371696	1.069092	0.597900	-1.797363
25681		-34.582464	9.985398	-24.850876	-0.294351	0.050096	-0.461550	1.069092	0.598145	-1.788818
25682		-34.217526	11.133135	-21.173051	0.511971	0.869960	-0.835303	1.090820	0.593750	-1.786621
25683		-25.587380	9.159635	-17.938670	0.972295	1.860556	-1.587673	1.123779	0.583008	-1.760498
25684		-20.974125	9.181449	-19.236963	2.079831	3.446758	-1.257299	1.196777	0.544434	-1.720947
25685		-1.893974	-9.109492	-13.775098	2.962810	5.102981	0.894592	1.299316	0.451660	-1.667480
25686		-0.850358	-1.393385	18.245053	2.684029	5.744824	4.550351	1.431152	0.333008	-1.577148
25687		-38.935376	-2.699111	27.376007	1.734384	6.405465	5.040747	1.543213	0.220703	-1.484863
25688		-43.725601	-6.946832	19.046298	3.455475	4.670096	3.553252	1.609375	0.114990	-1.416504
25689		-26.125026	1.081630	23.332068	2.995067	2.555819	2.511628	1.639893	0.043701	-1.363770
25690		-14.553866	22.698508	14.877921	1.597621	0.490170	2.093777	1.634766	-0.006348	-1.343750
25691		-22.083885	4.430854	4.374282	0.629315	-0.823658	0.835421	1.615723	-0.017090	-1.334961
25692		-8.084718	3.604098	12.337770	0.563942	-0.748473	0.276717	1.598389	-0.019287	-1.313721
25693		0.797132	-4.693426	13.659482	0.536297	-0.360066	0.138340	1.585449	-0.025879	-1.288086
25694		-11.776928	0.166879	8.946041	0.639054	-0.343727	0.038285	1.572754	-0.030029	-1.266602
25695		-11.567570	-4.331386	11.281170	0.652514	-0.477625	0.027610	1.559570	-0.027832	-1.245361
25696		-4.116948	-4.087035	10.144479	0.572888	-0.152130	0.059413	1.546631	-0.025635	-1.221924
25697		-7.802423	-0.791103	10.245425	0.470237	-0.023608	-0.035618	1.533447	-0.025635	-1.204834
25698		-5.158799	-3.928230	10.630882	0.357970	0.191577	-0.007258	1.533447	-0.019043	-1.175049
25699		-5.904854	-3.516316	11.552285	0.351304	0.374152	0.066641	1.529053	-0.016846	-1.140869
25700		-9.906053	-0.972508	11.736450	0.293341	0.696698	0.136327	1.524658	-0.014648	-1.098145
25701		-4.137725	-2.153888	14.486840	0.348914	1.444204	0.184293	1.538086	-0.020996	-1.055176
25702		-5.393649	-5.337057	16.647850	0.119710	2.684067	0.316342	1.561768	-0.016357	-0.984619
25703		-2.516123	-1.092228	17.267737	-0.125569	3.879275	0.497610	1.590088	-0.013672	-0.886230
25704		1.905568	-2.770686	16.005762	-0.189903	5.028650	0.579235	1.631836	-0.026367	-0.781006
25705		-2.881467	0.898903	14.597793	-0.396787	6.068214	1.064568	1.662842	-0.036865	-0.652344
25706		-4.513436	0.735786	11.951017	-0.427425	6.829535	1.312467	1.687500	-0.058105	-0.514893
25707		-3.029896	-0.788981	11.054544	-0.376754	7.380438	1.433651	1.701172	-0.072754	-0.369141
25708		-5.854994	-3.263611	8.240215	-0.191086	8.104524	1.619636	1.702393	-0.104736	-0.201904
25709		-16.121012	-5.792568	8.344639	0.199241	8.423047	1.774234	1.694580	-0.125977	-0.045410
25710		-23.913963	-6.073730	6.044813	0.337149	7.540935	1.877331	1.671631	-0.156006	0.083252
25711		-19.614181	-6.497516	4.704537	0.368202	6.219702	2.102234	1.635742	-0.186279	0.184082
25712		-16.708236	-6.443982	6.567149	0.610023	5.358314	2.499095	1.597900	-0.223145	0.267822
25713		-9.329840	-2.873125	4.058513	0.770029	4.503202	2.589550	1.555664	-0.261963	0.334473
25714		-6.530083	2.659307	3.883686	0.269816	4.361884	2.720692	1.513184	-0.288086	0.396729
25715		-8.238480	3.613866	5.695796	-0.497053	4.096173	2.709998	1.464111	-0.318359	0.448242
25716		-10.907535	1.391908	9.965514	-1.151102	3.578997	2.891020	1.422119	-0.361816	0.489502
25717		-10.798498	1.421876	12.631711	-1.411744	3.066137	3.356563	1.380127	-0.409668	0.515625
25718		-13.260284	0.794672	12.776226	-1.537113	2.809306	3.519231	1.340332	-0.457275	0.535645
25719		-13.689874	-1.201920	12.934746	-1.523532	2.649627	3.454682	1.298340	-0.505127	0.555420
25720		-11.776167	-3.939719	13.841181	-1.119460	2.829933	3.394281	1.260254	-0.541992	0.572998
25721		-10.711299	-4.919811	15.137552	-0.460495	3.162564	3.417021	1.220215	-0.576904	0.601074
25722		-10.253390	-4.070981	16.615602	0.083763	3.447515	3.459459	1.175537	-0.611572	0.639893
25723		-9.925497	-3.646073	17.772805	0.303034	3.652875	3.556821	1.131104	-0.646240	0.674561
25724		-10.262144	-3.909510	18.296154	0.268741	3.722129	3.701483	1.082520	-0.687500	0.711426
25725		-11.561626	-4.673950	18.802147	0.131160	3.616295	3.798399	1.033691	-0.724365	0.748047
25726		-14.614197	-6.373842	19.180654	0.019918	3.279514	3.711949	0.991211	-0.761475	0.774170
25727		-17.336128	-9.292535	18.741623	0.174538	2.572198	3.362059	0.959717	-0.793945	0.795898
25728		-18.226796	-11.421996	17.414987	0.787099	1.370070	2.651230	0.945068	-0.815674	0.815430
25729		-15.591904	-10.775491	16.025863	1.441843	0.076512	1.614362	0.949707	-0.822021	0.823975
25730		-11.327764	-9.520272	14.170685	1.668509	-0.885603	0.466088	0.973633	-0.819824	0.832764
25731		-7.414484	-8.986254	12.008810	1.587758	-1.496272	-0.539101	1.010498	-0.817627	0.834961
25732		-5.050559	-8.024872	10.582755	1.356225	-1.932092	-1.338139	1.053467	-0.802246	0.830811
25733		-4.924143	-7.810873	9.441203	1.096596	-2.429852	-1.952740	1.107178	-0.786865	0.811523
25734		-5.023617	-7.154035	8.521699	0.884020	-3.111405	-2.370334	1.171631	-0.762939	0.790039
25735		-3.982027	-5.786263	8.023520	0.560329	-3.804512	-2.675847	1.246826	-0.741211	0.749512
25736		-3.143436	-4.721245	7.579760	0.092762	-4.362452	-2.892750	1.315918	-0.725830	0.696045
25737		-3.703937	-4.161051	7.485369	-0.435962	-4.842440	-2.978597	1.393066	-0.695557	0.629639
25738		-6.128568	-3.488201	7.831837	-0.983825	-5.334347	-2.974841	1.470703	-0.682373	0.548584
25739		-8.941808	-3.206044	7.604385	-1.490854	-5.997099	-2.953371	1.548096	-0.658691	0.435303
25740		-8.952397	-3.241650	7.026792	-1.901805	-6.650336	-2.970628	1.612305	-0.637207	0.307129
25741		-7.747662	-3.114210	6.538063	-2.209415	-6.995629	-3.015468	1.672119	-0.606934	0.169922
25742		-6.763045	-2.826063	6.717119	-2.482916	-6.969152	-3.106702	1.725342	-0.576904	0.026367
25743		-7.555505	-2.354109	7.540410	-2.739691	-6.708422	-3.225579	1.769531	-0.538086	-0.127930
25744		-9.232779	-2.290060	8.196649	-2.922356	-6.530638	-3.396895	1.795898	-0.481934	-0.265625
25745		-10.252725	-2.035434	8.876541	-3.020685	-6.391707	-3.618559	1.811523	-0.423828	-0.411865
25746		-11.708748	-2.686517	9.994426	-2.982749	-6.203049	-3.847016	1.824463	-0.356934	-0.560547
25747		-14.143179	-1.916043	11.756850	-2.854771	-5.998044	-4.115423	1.819824	-0.279297	-0.702881
25748		-17.694006	0.366948	13.376838	-2.888190	-5.732375	-4.561274	1.807861	-0.179932	-0.841553
25749		-24.643635	1.495810	13.767481	-3.097003	-5.485701	-5.164882	1.787109	-0.065430	-0.967529
25750		-34.760459	-1.765523	11.307803	-2.849244	-5.734372	-5.671072	1.748291	0.057617	-1.100342
25751		-40.887456	-2.736062	6.960167	-1.612164	-6.494630	-5.836929	1.677490	0.171875	-1.245850
25752		-42.013864	2.241071	2.630181	-0.349135	-7.141799	-5.799486	1.576416	0.279785	-1.385254
25753		-41.704262	9.833903	-2.642500	0.297339	-7.142464	-5.587254	1.462891	0.363525	-1.507080
25754		-38.247497	19.387391	-8.929288	-0.284047	-6.399949	-5.153265	1.358398	0.443359	-1.594482
25755		-33.659932	14.681189	-16.267133	-1.861643	-5.067111	-4.069905	1.264404	0.536133	-1.662842
25756		-33.716150	9.272614	-24.634288	-2.084439	-3.457375	-2.261791	1.206055	0.592285	-1.691895
25757		-32.441230	15.040581	-27.946078	-1.624247	-1.943331	-0.593779	1.183350	0.626709	-1.705322
25758		-35.464069	21.972525	-25.873930	-1.759831	-0.506480	-0.269866	1.184570	0.661621	-1.695313
25759		-35.965568	12.152515	-26.375703	-1.552754	0.263181	-0.600999	1.190674	0.678955	-1.674072
25760		-26.575350	0.450749	-26.441768	0.808566	1.352951	-0.296419	1.224121	0.646484	-1.664795
25761		-28.060215	11.711270	-23.802873	2.871988	2.796054	0.615727	1.298340	0.562256	-1.635254
25762		-11.308721	0.618842	-15.905083	3.698868	4.285974	2.942192	1.406006	0.452148	-1.572998
25763		-23.347189	-11.752616	25.733821	1.960908	5.645259	5.651248	1.522705	0.329102	-1.491211
25764		-32.405481	-14.787222	23.812588	4.410646	4.773852	4.775590	1.601074	0.179932	-1.413330
25765		-27.261343	6.720916	28.361579	3.564001	3.217193	3.235218	1.647217	0.084717	-1.364502
25766		-14.554317	16.782190	18.107456	3.045014	1.035582	2.832031	1.645020	0.015381	-1.329102
25767		-31.878771	14.902051	4.420548	1.168528	-0.789225	1.167087	1.628418	-0.008301	-1.315918
25768		-11.188964	8.079701	13.137619	0.570735	-0.849517	0.354809	1.609131	-0.017090	-1.298584
25769		-3.084719	-1.736329	15.538625	0.451845	-0.422666	0.112110	1.593994	-0.012695	-1.275391
25770		-1.704745	-0.996360	11.404506	0.418873	-0.093105	-0.028224	1.578857	-0.014893	-1.249756
25771		-10.347369	-1.876671	8.235693	0.463849	-0.129971	0.038473	1.565674	-0.014893	-1.228516
25772		-10.175282	-4.525950	8.892637	0.497791	-0.151206	0.042065	1.557129	-0.014648	-1.200684
25773		-4.867379	-1.121914	10.759427	0.324278	0.060065	0.014341	1.544189	-0.014648	-1.175049
25774		-10.261379	-3.911814	10.818074	0.277225	0.182197	-0.027134	1.537354	-0.008301	-1.149658
25775		-4.015078	-5.149016	10.762247	0.292428	0.354985	0.053443	1.531006	-0.008057	-1.117432
25776		-6.746201	-2.000544	11.877021	0.211945	0.631503	0.116580	1.535156	-0.003662	-1.081299
25777		-9.612460	-2.691125	12.895711	0.417091	1.090253	0.151023	1.542236	-0.014404	-1.033936
25778		-3.081008	-1.849301	16.988743	0.170435	2.370466	0.314436	1.557373	-0.011963	-0.965576
25779		-2.831374	-3.080018	18.861210	0.137550	3.647461	0.376981	1.581543	-0.015869	-0.875488
25780		-1.295605	-2.540726	16.739404	-0.186599	4.824705	0.498254	1.614502	-0.024170	-0.766113
25781		2.004192	-0.013229	16.545893	-0.373259	6.079526	0.905825	1.647461	-0.030273	-0.641846
25782		-2.384848	0.404928	12.776292	-0.597658	7.004773	1.305021	1.672363	-0.055908	-0.504395
25783		-5.165045	1.034962	10.920417	-0.490579	7.616397	1.464771	1.681641	-0.070557	-0.350098
25784		-2.870783	-1.816976	8.546435	-0.403253	8.275038	1.555907	1.680420	-0.093994	-0.182861
25785		-11.866604	-6.294920	6.537387	0.041775	8.757103	1.694035	1.672607	-0.121826	-0.026367
25786		-25.531711	-4.453678	4.742132	0.525580	8.067383	1.710666	1.641113	-0.149658	0.114990
25787		-24.248749	-6.529388	3.251325	0.610739	6.530002	1.759189	1.600586	-0.164551	0.217529
25788		-14.894257	-8.789792	3.817636	1.265133	5.577149	2.385451	1.564453	-0.194824	0.301270
25789		-11.372655	-5.990011	4.519593	1.975055	4.684966	2.693535	1.515625	-0.225098	0.374268
25790		-5.551422	2.989894	4.959063	1.563671	4.535476	2.648784	1.470703	-0.249023	0.442871
25791		-4.156343	4.878242	5.401529	0.133859	4.773952	2.502112	1.422119	-0.285889	0.507324
25792		-6.218178	1.888842	5.926949	-0.794866	4.856373	2.435983	1.375000	-0.309570	0.558838
25793		-10.431966	0.787732	8.527841	-1.185809	4.652065	2.577330	1.319580	-0.340088	0.608398
25794		-12.342785	2.329779	11.129046	-1.426907	4.289607	2.833000	1.270996	-0.385742	0.638672
25795		-15.898053	0.988416	11.581615	-1.637149	3.960421	2.938355	1.222168	-0.420410	0.673340
25796		-17.209730	-2.475973	12.989979	-1.491263	3.630840	2.924337	1.179932	-0.459473	0.703613
25797		-14.793576	-3.735463	14.240381	-1.031735	3.591970	2.782719	1.137207	-0.487793	0.727539
25798		-12.443639	-4.004131	15.467580	-0.510499	3.834846	2.700851	1.094482	-0.509521	0.766113
25799		-12.290865	-3.978325	16.463957	-0.084946	4.115186	2.747083	1.047607	-0.535645	0.798340
25800		-12.635413	-4.084388	17.141152	0.192564	4.194355	2.930485	1.002930	-0.561523	0.834961
25801		-13.144107	-3.847257	18.042882	0.236573	4.109619	3.177341	0.956055	-0.592041	0.877930
25802		-15.925306	-4.255658	19.306857	0.001432	3.940865	3.386817	0.904785	-0.622559	0.910156
25803		-20.288629	-6.637742	19.577185	-0.139339	3.394466	3.370457	0.864502	-0.655029	0.938477
25804		-22.863280	-10.721466	17.860219	0.198706	2.240378	3.233824	0.841553	-0.687500	0.951660
25805		-22.042247	-11.379354	16.764980	0.911443	0.618837	2.940001	0.826904	-0.702881	0.968994
25806		-18.995874	-8.995055	16.207693	1.187692	-0.939625	2.210992	0.844727	-0.719971	0.967285
25807		-14.969615	-7.812828	14.428514	0.935096	-2.265374	1.136884	0.882080	-0.735107	0.961182
25808		-9.929744	-8.353234	11.844524	0.616723	-3.300216	0.058111	0.938965	-0.743652	0.942383
25809		-6.381479	-9.188007	8.821040	0.519136	-3.986083	-0.839343	0.999512	-0.737061	0.910645
25810		-4.134658	-9.132336	6.578189	0.685969	-4.539675	-1.548794	1.070801	-0.730469	0.880859
25811		-1.898952	-7.047657	5.676538	0.737355	-4.931517	-2.127327	1.155029	-0.717285	0.833984
25812		-0.929786	-5.239511	5.646106	0.452985	-5.110639	-2.652193	1.234863	-0.695557	0.782715
25813		-2.040511	-4.486154	5.955523	-0.014277	-5.260252	-3.051250	1.312256	-0.673828	0.720947
25814		-5.021463	-4.359376	6.253817	-0.419007	-5.676321	-3.274725	1.398193	-0.649902	0.637451
25815		-6.534077	-3.919802	6.511498	-0.679551	-6.352536	-3.378460	1.490723	-0.623779	0.547852
25816		-6.144789	-2.931789	6.455424	-0.982932	-6.877293	-3.430969	1.576416	-0.589111	0.434326
25817		-5.356764	-2.396715	6.390468	-1.338825	-7.103518	-3.425822	1.646973	-0.561035	0.303711
25818		-5.846429	-2.030383	7.044860	-1.722822	-7.079074	-3.405694	1.710938	-0.524414	0.160156
25819		-8.194970	-1.736406	8.317013	-2.092453	-7.021673	-3.372061	1.757324	-0.483643	0.020752
25820		-10.939510	-1.643044	9.225570	-2.371852	-7.200526	-3.357426	1.794678	-0.434082	-0.142334
25821		-11.895039	-1.212914	10.318979	-2.619308	-7.428757	-3.360980	1.823486	-0.388672	-0.299072
25822		-12.596745	-0.961692	11.231850	-2.882236	-7.555189	-3.407924	1.830078	-0.324219	-0.468994
25823		-14.071888	-0.309885	11.980542	-3.119958	-7.513564	-3.529453	1.832275	-0.261719	-0.639160
25824		-16.961092	-0.298529	12.798458	-3.244848	-7.382311	-3.707541	1.803711	-0.184326	-0.813721
25825		-21.727841	0.055548	13.477072	-3.208837	-7.231551	-3.900439	1.768555	-0.100342	-0.973633
25826		-28.499933	0.211093	12.450996	-2.960299	-7.205532	-4.155067	1.717529	0.000977	-1.135986
25827		-34.255148	0.749385	9.231276	-2.337020	-7.307888	-4.406058	1.642578	0.100098	-1.285645
25828		-37.356769	3.576074	4.480440	-1.567120	-7.255306	-4.577019	1.548584	0.190674	-1.426514
25829		-39.535648	9.740812	-1.006597	-1.085797	-6.781273	-4.596805	1.445801	0.283203	-1.537842
25830		-39.473883	17.066010	-7.380144	-1.512187	-5.828433	-4.289222	1.349609	0.373779	-1.625244
25831		-37.671343	14.063665	-15.115421	-2.488691	-4.586392	-3.403450	1.268555	0.466553	-1.682861
25832		-37.158781	11.125363	-22.703102	-2.671702	-3.085800	-1.825283	1.214600	0.527100	-1.709961
25833		-37.670223	16.062753	-26.872078	-2.314780	-1.675068	-0.610477	1.198242	0.568359	-1.712891
25834		-38.145063	20.574720	-25.854543	-2.265755	-0.428022	-0.371975	1.198975	0.615967	-1.698730
25835		-37.769000	14.663583	-26.723430	-2.045621	0.379201	-0.648930	1.208984	0.644287	-1.690674
25836		-27.205077	-0.191352	-27.792040	-0.116715	1.365101	-0.408497	1.244385	0.627197	-1.664551
25837		-24.932105	8.073915	-25.323151	2.924653	3.186163	0.728218	1.326904	0.553711	-1.624268
25838		-15.905642	6.053649	-20.641343	3.762874	4.825966	2.213788	1.436523	0.445801	-1.555664
25839		-5.461170	-21.523472	15.343388	2.253894	6.455012	4.914364	1.571045	0.307617	-1.456299
25840		-53.725577	-16.919701	32.718058	5.729110	4.790601	5.145645	1.640869	0.151855	-1.391113
25841		-35.880208	30.526924	24.358150	3.477756	1.248924	2.891180	1.647949	0.065430	-1.357666
25842		-23.895578	12.381630	21.796899	2.462792	-1.064076	1.959637	1.623291	0.015381	-1.354736
25843		-10.546108	6.861189	9.433304	1.427141	-1.176532	0.370870	1.600098	-0.006348	-1.348145
25844		-12.663337	9.327831	11.093442	0.879601	-0.969613	0.033383	1.583008	-0.017334	-1.328857
25845		-4.353665	-1.570066	13.208709	0.689569	-0.599397	-0.244934	1.563477	-0.012939	-1.309814
25846		2.064586	-0.529495	14.210391	0.487881	-0.053838	-0.185902	1.552734	-0.012939	-1.277588
25847		-9.683247	-0.886403	9.734174	0.345088	0.262824	-0.022006	1.545898	-0.006348	-1.252197
25848		-11.022082	-5.063587	10.661807	0.282089	0.303279	0.044778	1.541504	-0.003906	-1.218018
25849		-4.688981	-1.121873	10.611542	0.179053	0.416682	0.092059	1.535156	-0.001709	-1.188232
25850		-8.457379	-2.987195	10.521221	0.020828	0.593763	0.056733	1.530762	-0.001709	-1.164551
25851		-5.038589	-6.466832	10.408034	0.065230	0.673495	0.117234	1.532959	-0.001709	-1.121826
25852		-4.321783	-2.416253	11.683553	0.126828	0.966109	0.240324	1.531006	-0.005859	-1.083252
25853		-9.653168	-3.466085	12.431680	0.353079	1.455943	0.310896	1.541992	-0.005615	-1.031982
25854		-5.752976	-1.873148	15.337461	0.040985	2.476003	0.474457	1.555176	-0.011963	-0.957031
25855		-2.794159	-2.650983	17.975391	0.191647	3.531408	0.548526	1.581787	-0.024658	-0.873291
25856		-3.372230	-4.371413	15.993113	-0.198170	4.570642	0.612992	1.610107	-0.026367	-0.766113
25857		2.316397	0.436698	15.905443	-0.361929	5.776292	0.994860	1.636963	-0.041260	-0.643799
25858		-0.626410	-0.088289	12.608194	-0.552731	6.872233	1.485309	1.657471	-0.068848	-0.506348
25859		-5.795938	1.798939	11.719554	-0.401906	7.314505	1.580244	1.669189	-0.090088	-0.360596
25860		-3.924691	-0.426980	9.239406	-0.291493	7.855578	1.572873	1.667725	-0.109131	-0.210693
25861		-10.589631	-4.053674	6.974068	-0.105449	8.403739	1.657647	1.655762	-0.136963	-0.052002
25862		-23.275692	-4.774124	5.188422	0.264677	7.896102	1.507456	1.630371	-0.154053	0.084961
25863		-24.314632	-3.745621	5.926619	0.359429	6.818905	1.540055	1.590088	-0.177734	0.194336
25864		-14.271107	-5.743833	6.746962	0.222703	5.961643	1.864728	1.549316	-0.192871	0.284180
25865		-14.337522	-5.781282	7.240935	0.191086	4.945662	2.082669	1.506592	-0.216553	0.352783
25866		-9.447908	-1.047622	3.911494	0.233507	4.541162	2.329550	1.461914	-0.244873	0.408691
25867		-9.730664	3.873320	3.693093	-0.354639	4.375916	2.543723	1.417236	-0.275146	0.453857
25868		-9.446932	4.299016	5.561388	-0.930770	3.979824	2.585059	1.381348	-0.301025	0.500977
25869		-11.507460	3.983522	10.796398	-1.510509	3.349167	2.927785	1.334717	-0.346680	0.525146
25870		-10.330877	-0.469268	11.607654	-1.593318	2.891081	3.522921	1.290771	-0.394531	0.540771
25871		-10.342634	-1.141293	13.243380	-1.166319	2.626001	3.721810	1.246338	-0.437988	0.556152
25872		-7.919269	-0.126213	14.792091	-1.060637	2.638637	3.583522	1.210449	-0.474854	0.573730
25873		-7.372090	-3.374008	15.459065	-0.995659	2.787189	3.527441	1.174805	-0.509766	0.591064
25874		-8.001162	-4.981523	15.864788	-0.645452	2.806043	3.652517	1.134766	-0.553223	0.621582
25875		-8.351090	-5.187917	16.737317	-0.262260	2.736531	3.677063	1.098877	-0.587891	0.639160
25876		-8.724040	-5.543549	17.056553	0.024010	2.649649	3.624552	1.058594	-0.622559	0.665283
25877		-9.525352	-5.606662	17.294958	0.160841	2.475847	3.495610	1.022705	-0.653076	0.682617
25878		-11.898315	-5.430338	18.383138	0.078014	2.217953	3.236086	0.999756	-0.683350	0.708740
25879		-15.749583	-7.673975	19.138123	-0.018570	1.801353	2.865238	0.970215	-0.713867	0.719727
25880		-18.329341	-11.394590	18.530097	0.390444	1.031153	2.502979	0.958008	-0.735596	0.735107
25881		-18.143489	-11.321198	17.421113	1.098077	0.037746	2.041775	0.958496	-0.752930	0.743896
25882		-14.631344	-9.000813	16.186951	1.463749	-0.840970	1.352412	0.969482	-0.759277	0.754639
25883		-10.854181	-7.750512	14.346561	1.369845	-1.366200	0.500903	0.989258	-0.763672	0.750488
25884		-8.340429	-7.547547	12.619522	1.127956	-1.640125	-0.319450	1.021729	-0.765625	0.752930
25885		-7.828154	-7.926557	11.159276	0.960354	-1.882337	-1.079137	1.064941	-0.756836	0.748779
25886		-8.234889	-7.983668	9.851135	0.967027	-2.467665	-1.717264	1.116699	-0.745850	0.729492
25887		-7.273688	-6.446625	9.233719	0.973294	-3.264825	-2.223098	1.174805	-0.724121	0.708252
25888		-5.413506	-4.881310	8.657547	0.721249	-3.984793	-2.657467	1.250000	-0.704590	0.658936
25889		-3.581379	-4.534267	7.936517	0.293076	-4.533857	-2.907453	1.323242	-0.682617	0.607666
25890		-3.471613	-4.299842	8.057383	-0.216115	-4.913305	-2.959977	1.391846	-0.658936	0.541504
25891		-6.638752	-3.557974	8.239646	-0.822955	-5.353300	-2.954524	1.469482	-0.643555	0.460205
25892		-9.085255	-4.007088	8.096132	-1.338047	-6.053316	-2.967241	1.542236	-0.615479	0.346924
25893		-9.190086	-4.314619	7.898126	-1.678192	-6.701190	-2.974913	1.610840	-0.589600	0.222900
25894		-8.829362	-3.820230	7.850561	-1.987134	-7.109407	-3.041029	1.666260	-0.557373	0.083496
25895		-8.646776	-3.387245	8.161851	-2.339225	-7.233090	-3.157503	1.708496	-0.527344	-0.070557
25896		-9.753640	-3.627117	8.510230	-2.671212	-7.202114	-3.276514	1.741455	-0.475586	-0.225342
25897		-11.642805	-3.767200	9.009192	-2.888804	-7.171892	-3.426845	1.759277	-0.426025	-0.386475
25898		-14.030039	-3.761733	9.233126	-2.985598	-7.226926	-3.620573	1.767822	-0.352783	-0.554443
25899		-15.282204	-3.304737	9.671046	-2.960429	-7.265092	-3.938071	1.750244	-0.279541	-0.720459
25900		-16.725100	-1.688624	10.772571	-2.908775	-7.091504	-4.385579	1.727783	-0.186768	-0.878174
25901		-20.248333	0.507578	11.745868	-2.866727	-6.771185	-4.874062	1.692139	-0.092041	-1.019043
25902		-27.080292	2.481766	11.317639	-2.779566	-6.472177	-5.297794	1.643066	0.022461	-1.160156
25903		-34.614597	4.198572	8.730041	-2.348695	-6.407573	-5.517990	1.572266	0.130371	-1.290771
25904		-39.781458	10.848982	4.822032	-1.858332	-6.314747	-5.541786	1.484131	0.242432	-1.408447
25905		-41.433736	20.630502	-0.484537	-2.159076	-5.832311	-5.413248	1.393799	0.352539	-1.500732
25906		-41.999839	20.661962	-9.259211	-3.240166	-4.921767	-4.832562	1.305176	0.479980	-1.571777
25907		-40.983910	7.304457	-20.382478	-3.391646	-3.924985	-3.096818	1.239746	0.562256	-1.609863
25908		-38.004183	5.501653	-28.235715	-2.014513	-2.828077	-0.503240	1.204102	0.592285	-1.627686
25909		-38.250518	16.409907	-28.399079	-1.422973	-1.467035	1.015799	1.190918	0.598877	-1.638672
25910		-38.983956	17.072017	-26.711830	-1.787523	-0.192409	1.063057	1.203613	0.609863	-1.619385
25911		-34.212422	3.344318	-27.398601	-0.896041	0.858297	0.618830	1.236572	0.599121	-1.599854
25912		-29.892040	4.103467	-26.677358	2.087773	2.169184	0.495113	1.288086	0.542969	-1.575195
25913		-30.109541	7.628738	-25.531191	4.212984	3.885749	1.087110	1.369141	0.449951	-1.521729
25914		-0.598602	2.783701	-2.823283	3.395770	5.363623	2.388913	1.485352	0.348633	-1.427490
25915		-32.256671	-20.250105	36.458681	3.722415	5.209703	5.089612	1.559326	0.199463	-1.354004
25916		-35.180387	28.669300	33.069902	4.108555	2.475118	3.322305	1.590088	0.110840	-1.298828
25917		-16.557760	-1.258138	21.644953	2.195532	1.184457	3.338122	1.592773	0.028564	-1.267578
25918		-20.819035	4.191256	9.584363	2.172688	-0.737771	1.503385	1.569580	-0.001953	-1.260742
25919		-15.583411	17.027410	8.271970	1.298374	-1.093403	0.511881	1.550781	-0.021484	-1.249756
25920		-6.686345	2.505475	11.960586	0.820768	-0.912094	0.097128	1.524902	-0.025879	-1.232666
25921		-1.825209	-2.415454	13.536340	0.661774	-0.484938	-0.120770	1.513916	-0.019287	-1.213623
25922		-4.801179	-1.975609	11.364988	0.475247	-0.010862	-0.091782	1.513916	-0.023438	-1.183594
25923		-10.535702	-4.167114	9.696756	0.440779	0.132966	0.079311	1.501221	-0.027832	-1.160156
25924		-6.712238	-5.258960	8.786151	0.487065	0.247513	0.228701	1.503174	-0.025635	-1.128174
25925		-7.701735	-1.174418	10.209396	0.389357	0.390256	0.255176	1.494873	-0.034180	-1.095947
25926		-7.589086	-3.927525	10.460575	0.354281	0.495516	0.265405	1.495117	-0.042725	-1.061523
25927		-4.500130	-5.296256	10.788349	0.452096	0.738856	0.339034	1.495361	-0.049072	-1.014404
25928		-8.645568	-4.788584	12.263454	0.643744	1.153362	0.426976	1.498047	-0.059814	-0.965088
25929		-6.838892	-1.592376	15.086466	0.867825	2.003943	0.592462	1.513916	-0.081299	-0.900391
25930		-4.221450	-2.546673	17.743666	0.573702	3.189468	0.689119	1.523193	-0.098389	-0.818848
25931		-3.241761	-0.675332	17.147557	0.378935	4.228771	0.869783	1.539063	-0.113281	-0.713623
25932		0.249454	1.250332	16.462997	0.081250	5.340491	1.159919	1.559082	-0.125977	-0.602295
25933		-0.886977	1.165252	15.212466	-0.196929	6.403908	1.371168	1.568604	-0.145020	-0.477783
25934		-3.621283	1.892216	11.407812	-0.226566	7.057125	1.620193	1.580078	-0.166260	-0.346924
25935		-5.026711	0.119545	10.125425	-0.001457	7.479755	1.628959	1.561523	-0.189697	-0.203369
25936		-5.542207	-1.450882	7.902058	0.056078	7.885487	1.760003	1.551514	-0.215576	-0.066162
25937		-17.034560	-4.615706	7.646550	0.429573	7.986647	1.904960	1.522217	-0.239014	0.064453
25938		-21.733906	-4.697114	5.084737	0.927379	7.194319	1.859722	1.481201	-0.247559	0.169189
25939		-14.251260	-4.738628	6.595390	0.768213	6.464897	1.713895	1.438477	-0.269043	0.261230
25940		-10.085929	-4.735861	8.633268	0.820749	6.029966	2.242453	1.391602	-0.288574	0.344727
25941		-10.049876	-1.797659	8.636505	0.569870	5.670868	2.331133	1.342285	-0.308105	0.411133
25942		-11.820403	-1.582484	6.818535	-0.032208	5.409324	2.385457	1.301758	-0.336182	0.473389
25943		-12.950624	-3.149607	5.749717	0.069405	4.902946	2.586880	1.250244	-0.353516	0.524658
25944		-9.567726	0.648749	7.102558	0.324843	4.457608	2.657954	1.212158	-0.381836	0.563477
25945		-10.859982	7.533320	13.735008	-0.513916	4.068625	2.715148	1.167236	-0.407715	0.591553
25946		-14.162137	5.062149	17.115718	-1.781948	3.284701	3.297444	1.129639	-0.455566	0.604980
25947		-11.635459	0.440807	16.959829	-2.090194	2.693220	3.898580	1.087646	-0.501221	0.612061
25948		-11.049253	-1.590274	17.328041	-2.139305	2.410745	4.180276	1.056641	-0.555664	0.612793
25949		-11.714741	-4.948877	16.842145	-1.908840	2.187937	4.225075	1.025391	-0.603271	0.626221
25950		-11.786303	-7.111467	17.415544	-1.388516	1.930289	4.055419	0.987793	-0.646729	0.626709
25951		-12.418516	-8.756000	17.976367	-0.780684	1.737705	3.678865	0.967041	-0.683838	0.640137
25952		-12.997886	-11.394818	17.829584	-0.029816	1.521309	3.177960	0.944092	-0.711914	0.655518
25953		-13.908038	-12.674115	17.635395	0.904833	1.233853	2.560985	0.923096	-0.733643	0.670654
25954		-14.513469	-12.640661	17.372485	1.733878	0.845050	1.806822	0.920898	-0.733643	0.691895
25955		-13.060552	-11.247107	17.078102	2.248580	0.363613	0.901602	0.923096	-0.737793	0.719971
25956		-11.896278	-8.211689	16.739533	2.266998	-0.117189	-0.057855	0.942383	-0.724854	0.741211
25957		-11.184797	-5.948970	16.147840	1.755304	-0.665917	-0.854800	0.968018	-0.711670	0.756104
25958		-9.580379	-5.916722	14.771634	1.123192	-1.268990	-1.383264	1.007080	-0.707275	0.749756
25959		-7.648910	-6.968595	12.919164	0.793064	-1.942501	-1.654332	1.047852	-0.696289	0.743408
25960		-6.493648	-6.490639	11.297969	0.714198	-2.674853	-1.765706	1.104248	-0.687500	0.722168
25961		-5.754780	-4.530204	10.570916	0.511336	-3.420996	-1.889851	1.162354	-0.678711	0.696533
25962		-5.661002	-3.538341	10.134590	0.020736	-4.118498	-2.095422	1.229492	-0.674316	0.656250
25963		-5.481113	-3.852450	9.750296	-0.552040	-4.772274	-2.345999	1.307373	-0.661133	0.596680
25964		-6.665839	-4.450467	9.141033	-1.008881	-5.408623	-2.599160	1.374268	-0.652588	0.511230
25965		-7.647828	-4.977524	8.441511	-1.318588	-6.019968	-2.815896	1.456055	-0.630859	0.413086
25966		-7.841996	-5.201826	7.873513	-1.558469	-6.487281	-3.008643	1.531250	-0.613525	0.297607
25967		-8.516089	-4.961274	7.593429	-1.788315	-6.745131	-3.202545	1.597656	-0.587646	0.179932
25968		-9.026750	-4.774599	7.847093	-2.006498	-6.848006	-3.412918	1.659180	-0.544434	0.038330
25969		-9.837891	-4.107704	8.758480	-2.255943	-6.829735	-3.590294	1.705566	-0.499268	-0.107422
25970		-12.082372	-3.719975	9.750900	-2.581344	-6.804498	-3.759836	1.736084	-0.443115	-0.262207
25971		-14.422075	-3.272817	10.751745	-2.831716	-6.956356	-3.899739	1.751465	-0.376221	-0.417236
25972		-15.315746	-2.281110	11.917862	-3.044429	-7.208060	-4.056061	1.753174	-0.302979	-0.589600
25973		-15.764387	-0.887784	13.185089	-3.240502	-7.376901	-4.214085	1.741699	-0.216797	-0.760010
25974		-17.676450	1.024421	14.008619	-3.431841	-7.437236	-4.380704	1.708496	-0.124023	-0.919922
25975		-20.570706	3.258244	14.732252	-3.514113	-7.306348	-4.583001	1.659424	-0.018555	-1.082520
25976		-26.672635	4.512536	13.646385	-3.384692	-7.110961	-4.824570	1.590820	0.089355	-1.232178
25977		-33.975025	3.398519	10.184785	-2.612869	-7.062263	-4.894939	1.502686	0.203613	-1.371338
25978		-40.434443	6.168414	5.083888	-1.408252	-7.019290	-4.684373	1.395752	0.289795	-1.495361
25979		-42.453133	13.247995	-2.081052	-0.774306	-6.681368	-4.288578	1.284912	0.360596	-1.602051
25980		-38.609091	14.448498	-10.513941	-1.187156	-5.714665	-3.354903	1.185059	0.427246	-1.682617
25981		-37.043227	13.211480	-18.312573	-1.786791	-4.139638	-1.795481	1.120605	0.476807	-1.724609
25982		-41.276071	17.299619	-23.479193	-2.005250	-2.598816	-0.745986	1.082031	0.524414	-1.749023
25983		-40.865767	20.122590	-25.646055	-1.852787	-1.306223	-0.662575	1.059326	0.561279	-1.749756
25984		-37.234440	15.873687	-26.171854	-0.999938	-0.224595	-0.884043	1.063232	0.574219	-1.750000
25985		-33.834594	13.620861	-23.689285	0.260672	0.712727	-0.715868	1.080811	0.570068	-1.732666
25986		-28.362968	12.193725	-19.556744	0.998758	1.771699	-0.490932	1.125000	0.546387	-1.706543
25987		-26.085416	11.871490	-19.029328	2.023503	3.037040	0.389465	1.200684	0.486084	-1.662354
25988		-4.036394	-1.952666	-10.668565	2.984622	4.297690	2.354021	1.301270	0.388916	-1.604492
25989		0.155263	-5.290461	17.988057	2.092749	5.739738	4.878115	1.426270	0.281006	-1.507813
25990		-33.174121	-13.629919	24.874606	2.364937	6.653747	4.615758	1.527588	0.166748	-1.402832
25991		-51.027685	-4.155620	26.113411	4.164013	4.520234	2.753736	1.584717	0.073975	-1.319580
25992		-21.939531	13.716244	19.616343	2.823947	1.787180	1.975982	1.591064	0.011230	-1.286377
25993		-22.210527	23.254550	11.705452	0.922247	-0.042591	1.756795	1.580811	-0.012695	-1.258301
25994		-17.040043	6.385266	7.001564	0.501863	-0.670089	0.356431	1.557129	-0.014893	-1.241211
25995		-4.713585	-2.216842	12.380532	0.476605	-0.608314	-0.009882	1.543945	-0.014893	-1.228516
25996		0.425571	-2.661817	13.322091	0.500774	-0.277410	0.018620	1.528809	-0.014893	-1.205078
25997		-10.831630	-1.246376	9.825448	0.604237	-0.347440	-0.015339	1.520508	-0.021240	-1.185791
25998		-7.332903	-4.462034	9.853426	0.515031	-0.108960	0.073673	1.505371	-0.027832	-1.164307
25999		-8.013606	-2.770212	9.744687	0.427565	0.031077	0.070046	1.503418	-0.027832	-1.138672
26000		-6.923016	-1.845522	10.914967	0.300955	0.145081	0.026802	1.494629	-0.027832	-1.108887
26001		-4.061775	-4.696413	10.090397	0.180248	0.453043	0.143002	1.496826	-0.027588	-1.070313
26002		-6.622830	-3.734813	10.780181	0.171853	0.638744	0.236000	1.490479	-0.031982	-1.036133
26003		-8.139930	-0.712829	11.366463	0.085144	0.915339	0.287206	1.492920	-0.038330	-0.989014
26004		-5.682984	-2.758877	12.632192	0.139439	1.528089	0.335984	1.499756	-0.042480	-0.935303
26005		-6.542255	-4.524317	15.081437	-0.164639	2.547858	0.366932	1.513184	-0.050781	-0.860352
26006		-3.182024	0.564193	16.906107	-0.058801	3.588311	0.382905	1.528320	-0.050537	-0.768311
26007		-0.964382	-3.377979	15.385742	-0.360499	4.712635	0.297654	1.546143	-0.056641	-0.663330
26008		0.040908	-0.305384	14.921641	-0.471866	5.720596	0.575283	1.561523	-0.060547	-0.545654
26009		-3.013208	0.001985	12.635440	-0.654209	6.733788	1.078474	1.572998	-0.073242	-0.412598
26010		-6.391016	0.092602	11.223741	-0.494974	7.258772	1.288077	1.569336	-0.088135	-0.281982
26011		-2.083769	-1.682042	9.328394	-0.383444	7.624339	1.335783	1.559326	-0.111572	-0.140625
26012		-7.900072	-3.899743	6.878787	-0.219558	8.349790	1.538135	1.540527	-0.128662	-0.003418
26013		-22.863238	-4.078593	6.073782	0.135208	8.070216	1.601903	1.504395	-0.147949	0.125000
26014		-21.249577	-4.910189	5.117059	0.265096	7.009476	1.557028	1.465820	-0.165039	0.225586
26015		-12.719116	-5.814677	5.153370	0.421789	6.254536	1.847348	1.420898	-0.180176	0.311035
26016		-15.578790	-3.800710	7.793806	0.418321	5.695512	2.059243	1.378174	-0.201660	0.383789
26017		-13.066616	-4.429062	5.266571	0.363405	4.842150	2.283411	1.333008	-0.216797	0.433105
26018		-12.136056	-3.415033	5.095594	0.651533	4.391321	2.370489	1.296631	-0.234131	0.480225
26019		-10.298297	-0.202975	6.067157	0.755241	3.976223	2.470648	1.253906	-0.255859	0.516602
26020		-7.215825	3.193489	8.910710	0.483080	3.947787	2.640661	1.208984	-0.279785	0.544678
26021		-11.988715	7.512122	15.299416	-0.678840	3.655358	3.013974	1.181885	-0.314453	0.577148
26022		-12.343098	2.693636	16.294536	-1.647464	3.197254	3.538899	1.144043	-0.355713	0.592773
26023		-11.790073	-0.007636	17.200822	-1.951864	2.765996	3.913416	1.104248	-0.403564	0.599609
26024		-11.368789	-1.403813	17.257127	-2.126343	2.368910	4.112508	1.079590	-0.453613	0.608887
26025		-10.778196	-3.772128	16.787402	-2.146463	2.064190	4.183302	1.048828	-0.507813	0.614014
26026		-10.203966	-6.116519	16.774751	-1.929851	1.864967	4.213493	1.015381	-0.555664	0.614746
26027		-10.597877	-7.774063	16.622647	-1.565864	1.735726	4.133491	0.986572	-0.607910	0.613281
26028		-11.751072	-8.923924	17.129864	-1.093726	1.612590	3.931070	0.961670	-0.646973	0.622314
26029		-13.527679	-11.924829	17.469366	-0.459379	1.465507	3.593369	0.934570	-0.686035	0.639893
26030		-15.183776	-15.017521	17.039722	0.641950	1.119245	3.091998	0.915771	-0.707764	0.657227
26031		-15.869961	-15.440604	16.501654	1.982925	0.476041	2.412254	0.909668	-0.720703	0.678955
26032		-14.497813	-11.706127	16.490929	2.871356	-0.318832	1.462587	0.920654	-0.724854	0.702637
26033		-12.225155	-7.347486	16.724611	2.779136	-1.012471	0.321713	0.941895	-0.711914	0.713135
26034		-9.856374	-6.581043	15.885592	1.978966	-1.439773	-0.736846	0.976563	-0.703125	0.719482
26035		-9.225468	-9.111323	13.453363	1.422871	-1.929746	-1.492859	1.012939	-0.692139	0.719482
26036		-8.804107	-10.209284	11.418679	1.382533	-2.639526	-1.903853	1.066650	-0.672363	0.706787
26037		-8.121994	-8.511026	10.165461	1.451696	-3.499705	-2.229548	1.131348	-0.655029	0.678955
26038		-6.728261	-6.112847	9.494933	1.227229	-4.337875	-2.593589	1.206543	-0.633057	0.646973
26039		-4.450565	-4.371664	8.841185	0.674884	-4.975035	-2.972976	1.281982	-0.609131	0.593506
26040		-4.098846	-4.135574	8.125945	-0.041910	-5.335224	-3.246879	1.361328	-0.580811	0.531494
26041		-5.256751	-5.017216	7.399227	-0.582941	-5.658840	-3.393865	1.440674	-0.554932	0.445801
26042		-7.015399	-5.968070	7.174531	-0.846396	-6.022946	-3.396231	1.509033	-0.518066	0.353516
26043		-8.888067	-5.632905	7.968487	-0.987354	-6.454261	-3.359067	1.577393	-0.481201	0.235840
26044		-10.574004	-3.950240	8.969259	-1.243917	-6.925384	-3.392086	1.641357	-0.451172	0.105225
26045		-11.276499	-2.926834	9.587218	-1.706088	-7.343879	-3.512433	1.685303	-0.401611	-0.047363
26046		-11.135555	-2.865554	9.624859	-2.178327	-7.599677	-3.605934	1.725098	-0.358398	-0.206055
26047		-10.739271	-2.558523	9.887671	-2.554867	-7.672833	-3.632088	1.735840	-0.293945	-0.371826
26048		-12.454995	-1.842622	10.217904	-2.922316	-7.684329	-3.605692	1.738037	-0.227051	-0.543945
26049		-14.932704	-1.310860	10.628943	-3.262057	-7.800735	-3.645022	1.711670	-0.153809	-0.716309
26050		-17.396948	-0.426023	11.011818	-3.546121	-7.898028	-3.794678	1.669922	-0.072021	-0.884766
26051		-20.399663	-1.586122	11.534511	-3.629107	-7.812351	-3.998116	1.616943	0.022705	-1.040527
26052		-26.157331	-2.411376	11.674233	-3.220619	-7.643653	-4.106695	1.538086	0.111084	-1.200684
26053		-33.520841	0.638389	11.490590	-2.596124	-7.471935	-4.230880	1.450684	0.203613	-1.333252
26054		-41.349266	6.481316	8.380859	-2.294268	-7.357001	-4.475740	1.343506	0.296143	-1.459473
26055		-42.780734	12.161514	1.929679	-2.267714	-6.964020	-4.539882	1.227539	0.393066	-1.562256
26056		-38.122529	14.154166	-6.112895	-2.620768	-5.995630	-3.807236	1.125000	0.479248	-1.634766
26057		-36.612122	14.061144	-15.098508	-2.644312	-4.389563	-2.466228	1.057861	0.539795	-1.668213
26058		-41.459209	13.510521	-24.875001	-1.686834	-2.936593	-1.057603	1.009033	0.576416	-1.701172
26059		-41.308487	18.991824	-28.735930	-0.934019	-1.701916	-0.327073	0.989014	0.591553	-1.708008
26060		-37.171038	16.161587	-29.824822	-0.362339	-0.357406	-0.450047	0.989014	0.591553	-1.712158
26061		-34.390128	14.382979	-27.184497	0.484525	0.928164	-0.590906	1.017334	0.587402	-1.697021
26062		-27.498346	10.234255	-22.677038	1.113029	2.295876	-0.805210	1.061523	0.561523	-1.662109
26063		-27.823979	10.308446	-20.776146	2.437031	3.833768	-0.104165	1.150146	0.505371	-1.622314
26064		-6.076938	-8.532335	-5.664176	3.442504	4.976805	2.021842	1.259521	0.410645	-1.551514
26065		-2.246784	3.236768	27.462678	2.247637	6.366288	5.119819	1.386719	0.302734	-1.444336
26066		-41.846301	-4.664100	25.939578	1.942068	6.652409	4.711742	1.491943	0.197266	-1.345703
26067		-47.821224	-8.986041	24.959813	4.129564	4.434245	3.791195	1.538574	0.093506	-1.277344
26068		-20.324825	3.892159	17.524024	3.122909	1.964536	2.279429	1.549072	0.034912	-1.231445
26069		-23.217942	28.456762	11.106020	1.433176	-0.095685	1.322304	1.536621	0.015381	-1.216309
26070		-17.086467	2.467459	6.109450	0.584856	-0.807599	0.469377	1.521973	0.002441	-1.207520
26071		-3.808212	-0.395304	14.584313	0.555522	-0.652133	0.093659	1.510986	0.004639	-1.184082
26072		-0.524814	-3.910379	12.217367	0.523738	-0.274068	0.086291	1.498047	0.000244	-1.160645
26073		-12.403308	0.891872	9.339716	0.539060	-0.293346	0.107170	1.489258	0.002441	-1.139404
26074		-7.164365	-3.519187	10.260685	0.476298	-0.217616	0.120311	1.485107	-0.001709	-1.120117
26075		-7.821803	-4.404705	10.190127	0.471489	-0.054829	0.187331	1.476563	-0.003906	-1.094482
26076		-7.257171	-0.327917	11.448639	0.394338	0.019310	0.103692	1.472412	-0.008057	-1.060059
26077		-3.981374	-3.494584	10.890087	0.247935	0.354516	0.104974	1.468262	-0.012451	-1.028076
26078		-8.485910	-3.943443	11.589388	0.205872	0.536214	0.156639	1.463867	-0.008057	-0.985352
26079		-7.297636	-2.772035	12.116963	0.181468	1.000580	0.269612	1.470703	-0.018555	-0.937988
26080		-3.750054	-3.545155	15.444125	0.031207	2.051673	0.426957	1.479492	-0.020508	-0.867432
26081		-4.209957	-1.918041	17.530579	0.003957	3.356597	0.552337	1.495117	-0.026855	-0.785889
26082		-0.850073	-1.047450	16.755765	-0.514825	4.630860	0.690408	1.512939	-0.037354	-0.683105
26083		0.765694	-0.157684	16.383003	-0.567984	5.736608	0.876985	1.530518	-0.041260	-0.563232
26084		-1.397558	2.118277	13.414630	-0.679860	6.712814	1.173997	1.544189	-0.053955	-0.434570
26085		-5.776110	1.100719	12.301090	-0.592610	7.423718	1.345223	1.544922	-0.070801	-0.303955
26086		-3.625025	-1.608741	9.482687	-0.413213	7.835069	1.366772	1.543457	-0.087891	-0.160400
26087		-6.712395	-5.694388	6.537069	-0.230811	8.490026	1.532764	1.520264	-0.104736	-0.014648
26088		-19.468263	-7.385473	6.013465	0.327322	8.368626	1.645382	1.492676	-0.121826	0.111572
26089		-26.555992	-5.855059	4.756703	0.364045	7.297192	1.739768	1.454102	-0.139160	0.207764
26090		-15.691442	-6.982431	4.153026	0.383475	6.087152	2.026478	1.409668	-0.171631	0.291504
26091		-14.637836	-4.241094	7.140178	0.213008	5.125065	2.238513	1.373291	-0.190918	0.347412
26092		-8.393769	-1.077326	4.180798	-0.174100	4.619790	2.305870	1.335205	-0.214844	0.398926
26093		-10.757020	-2.989425	3.281301	-0.454724	4.274562	2.636805	1.292725	-0.247314	0.441895
26094		-8.487977	-2.450831	4.877276	-0.232431	3.641825	2.929058	1.256592	-0.273438	0.472168
26095		-9.469132	3.474333	12.204035	-0.620140	3.303215	3.223596	1.222900	-0.312500	0.496094
26096		-10.861568	4.322845	16.916356	-1.668344	2.888566	3.422366	1.187500	-0.355957	0.509521
26097		-9.683115	-0.159720	16.540368	-2.152491	2.718444	3.654139	1.151855	-0.403809	0.516602
26098		-10.164001	-3.828084	17.377150	-1.967287	2.609912	4.058064	1.118652	-0.453613	0.525879
26099		-9.859703	-5.673594	18.002586	-1.444249	2.526108	4.337569	1.089844	-0.503662	0.539307
26100		-10.031906	-5.916264	19.204893	-0.940306	2.567164	4.366741	1.052002	-0.549316	0.554932
26101		-11.682021	-5.628640	20.265676	-0.670565	2.492160	4.051221	1.020752	-0.592773	0.570313
26102		-12.877205	-7.045331	20.619599	-0.424453	2.200552	3.535811	0.997803	-0.623047	0.587891
26103		-13.661426	-8.595391	21.318924	-0.057748	1.803528	3.038201	0.974854	-0.657715	0.603271
26104		-14.119352	-11.243096	20.620996	0.511778	1.288641	2.549439	0.958252	-0.681641	0.622803
26105		-13.469250	-13.358654	19.962959	1.407013	0.689494	2.070566	0.956543	-0.692383	0.637939
26106		-13.045459	-13.277803	19.225749	2.327630	0.007039	1.479000	0.956787	-0.703125	0.655273
26107		-10.845932	-10.843062	18.313839	2.865357	-0.734569	0.677290	0.973877	-0.692383	0.676514
26108		-9.340285	-7.160878	17.181036	2.616569	-1.332119	-0.211517	1.001953	-0.687744	0.683105
26109		-8.220894	-6.907969	14.964699	1.894989	-1.871710	-1.078747	1.040527	-0.670410	0.687256
26110		-6.829135	-9.131183	12.303047	1.541127	-2.476594	-1.748920	1.096680	-0.659424	0.674561
26111		-6.209980	-9.883033	10.247937	1.641581	-3.108275	-2.165755	1.154541	-0.635498	0.659424
26112		-6.652442	-7.730571	9.648807	1.711420	-3.833454	-2.482293	1.216797	-0.611328	0.631592
26113		-7.161773	-4.415474	9.654543	1.265292	-4.623463	-2.928192	1.291992	-0.583252	0.584473
26114		-5.782693	-4.169633	9.106582	0.510313	-5.334969	-3.358032	1.366943	-0.548340	0.522217
26115		-4.757161	-5.415395	8.210378	-0.125269	-5.757656	-3.547347	1.448486	-0.518066	0.440918
