// General information: 
//  MT Manager version: 2021.0.0 
//  XDA version: 2021.0.0 build 5908 rev 109668 built on 2021-04-19
// Device information: 
//  DeviceId: 00B44078
//  ProductCode: MTW2-3A7G6
//  Firmware Version: 4.4.0
//  Hardware Version: 1.1.0
// Device settings: 
//  Filter Profile: human(46.1)
//  Option Flags: Orientation Smoother Disabled, Position/Velocity Smoother Disabled, Continuous Zero Rotation Update Disabled, AHS Disabled, ICC Disabled
// Coordinate system: ENU
PacketCounter	SampleTimeFine	Acc_X	Acc_Y	Acc_Z	Gyr_X	Gyr_Y	Gyr_Z	Mag_X	Mag_Y	Mag_Z
24843		-11.147872	5.539079	3.418221	1.115155	4.828527	-1.889466	1.316650	-0.067627	0.735596
24844		-8.830158	4.761118	5.965351	0.440083	4.242457	-2.027936	1.280029	-0.038818	0.764404
24845		-5.984366	2.130970	8.508600	-0.045681	4.085117	-2.072254	1.241211	-0.016846	0.803955
24846		-8.028917	-0.632788	10.777058	0.176700	3.964569	-1.846767	1.198242	0.005127	0.832764
24847		-12.024653	-1.930909	14.962090	1.083285	3.539727	-1.800188	1.172363	0.042725	0.856934
24848		-17.296590	0.514429	18.743730	2.241622	2.578718	-1.781424	1.144287	0.082764	0.870605
24849		-13.824809	4.056696	19.498388	2.782741	1.595296	-1.961894	1.142578	0.135986	0.866943
24850		-10.544130	6.271868	19.266665	3.128841	1.058807	-2.404834	1.131836	0.195801	0.869385
24851		-10.909335	8.924415	19.048778	3.193265	0.687180	-2.998272	1.129639	0.258057	0.865234
24852		-12.865267	10.595203	18.382094	3.153493	0.179373	-3.494014	1.136475	0.329102	0.850586
24853		-14.455701	13.353126	17.554578	2.913881	-0.487199	-3.826838	1.138428	0.404541	0.833496
24854		-14.403594	16.384336	16.716756	2.362557	-1.193287	-4.088111	1.145508	0.462402	0.812744
24855		-13.560060	17.973562	16.095644	1.525358	-1.810460	-4.273497	1.158691	0.535645	0.787354
24856		-11.298503	17.693651	15.422371	0.652061	-2.211613	-4.277584	1.172363	0.593506	0.766602
24857		-9.020377	15.720606	14.716683	-0.055441	-2.397382	-3.990453	1.186279	0.651367	0.739502
24858		-8.265172	13.645638	12.961461	-0.439128	-2.546742	-3.277459	1.209473	0.689209	0.728027
24859		-8.632828	13.050930	10.942280	-0.731126	-2.933363	-2.281599	1.239746	0.722412	0.703857
24860		-7.024251	10.939489	9.309377	-0.886393	-3.331607	-1.121601	1.285889	0.738281	0.678223
24861		-5.157666	9.684560	7.867295	-0.917565	-3.659302	0.142041	1.343994	0.736084	0.655029
24862		-3.573912	8.632080	6.557728	-0.903601	-3.855710	1.329409	1.409180	0.723145	0.619873
24863		-3.653737	7.797766	5.796193	-0.832843	-3.966126	2.310244	1.485840	0.692139	0.580811
24864		-4.821414	7.821654	5.697997	-0.755821	-4.160162	3.031674	1.565674	0.641357	0.527588
24865		-6.716437	7.335928	6.443126	-0.684501	-4.530775	3.491216	1.645508	0.588379	0.468018
24866		-9.061885	5.896194	7.083995	-0.488367	-5.119620	3.828430	1.727783	0.524414	0.385254
24867		-10.098042	4.779356	7.532611	-0.099882	-5.832261	4.124626	1.808350	0.453857	0.281738
24868		-10.451740	4.588431	7.536928	0.355113	-6.448954	4.371609	1.878174	0.367676	0.157227
24869		-9.215487	4.841251	7.828804	0.695281	-6.860948	4.504934	1.939453	0.277100	0.024170
24870		-9.068612	3.860482	7.859743	0.982341	-7.075247	4.542978	1.987549	0.177734	-0.121094
24871		-10.104699	2.388026	8.337909	1.424522	-7.202008	4.561059	2.013672	0.071777	-0.277100
24872		-12.205188	1.326794	8.839647	2.098431	-7.280210	4.603831	2.024414	-0.043213	-0.433105
24873		-14.716866	1.307473	9.090369	2.799479	-7.310727	4.788938	2.020508	-0.182617	-0.590332
24874		-19.338808	4.441772	8.911391	3.174842	-7.309097	5.038390	2.000977	-0.322021	-0.734863
24875		-23.242421	7.478660	8.462312	2.970658	-7.143671	5.283381	1.946289	-0.481689	-0.883545
24876		-27.269910	9.304352	7.219730	2.367660	-6.661879	5.588123	1.873779	-0.636719	-1.013184
24877		-35.072761	11.023174	4.395157	1.493285	-5.962335	5.897803	1.785400	-0.782959	-1.132568
24878		-42.671288	9.165078	0.508134	0.501424	-5.398054	6.090361	1.667236	-0.913818	-1.233398
24879		-43.081887	-0.762098	-5.127885	0.120268	-4.726681	6.351718	1.537842	-1.033691	-1.321777
24880		-40.690909	-6.427545	-11.478733	0.513134	-3.659646	6.395280	1.414307	-1.138184	-1.361816
24881		-36.331418	-8.448705	-15.954844	0.599367	-2.366963	5.666482	1.321533	-1.227051	-1.393799
24882		-36.103114	-8.068747	-20.038705	-0.081150	-1.132618	4.359067	1.256348	-1.273682	-1.407715
24883		-34.256877	-9.445748	-21.688583	-1.185399	-0.295250	2.783117	1.216797	-1.286865	-1.428711
24884		-32.756198	-12.890672	-21.644743	-1.624751	0.236523	1.603898	1.205566	-1.282471	-1.437500
24885		-30.928517	-15.638462	-21.100207	-1.000237	0.547630	0.950559	1.205566	-1.282471	-1.433105
24886		-25.416397	-14.858553	-17.861241	0.159672	1.109881	0.490669	1.221191	-1.287109	-1.401123
24887		-19.816458	-7.569557	-12.047194	0.541236	2.040962	-0.071823	1.261230	-1.289307	-1.354004
24888		-22.291508	-7.608401	-12.250311	-0.095824	3.125807	-1.011260	1.338379	-1.267090	-1.301270
24889		-10.930652	-0.541982	-11.699457	-0.788977	4.451499	-2.558026	1.445313	-1.205078	-1.221924
24890		-9.562989	-2.831514	-1.389262	0.104368	6.206365	-4.995779	1.591553	-1.127441	-1.078857
24891		-52.247649	35.386857	23.674818	-0.001004	6.995008	-5.159907	1.714355	-1.007813	-0.958496
24892		-38.939711	21.754486	16.014328	-3.411712	4.862639	-3.745016	1.766846	-0.914551	-0.910156
24893		-13.714755	-6.635950	17.933760	-2.322813	2.144969	-2.297228	1.786377	-0.836914	-0.876221
24894		-13.340212	-11.291204	8.148323	-1.224154	0.303165	-2.048746	1.789063	-0.781494	-0.871338
24895		-24.922344	-6.525718	1.605843	-0.894292	-0.132467	-0.404040	1.768066	-0.750488	-0.857422
24896		-5.886283	1.001099	11.822642	-0.888596	-0.400853	0.034362	1.751709	-0.726074	-0.862549
24897		-0.894382	4.639039	13.053363	-0.671210	-0.048130	0.204356	1.735352	-0.703857	-0.848389
24898		-9.015921	4.527272	8.270737	-0.649908	0.057838	0.206493	1.721436	-0.690674	-0.836182
24899		-7.482710	7.367043	7.870642	-0.639723	0.042030	0.048611	1.709717	-0.670898	-0.819824
24900		-9.616413	5.525056	6.351359	-0.586477	0.098466	-0.107474	1.688721	-0.644287	-0.803711
24901		-8.401258	3.310237	8.680397	-0.550966	0.029511	-0.150755	1.686035	-0.628662	-0.791504
24902		-6.922556	4.392160	9.667391	-0.408631	0.175320	-0.342676	1.678223	-0.597656	-0.771240
24903		-7.488319	4.815193	8.928240	-0.323325	0.332783	-0.441916	1.675293	-0.580078	-0.744141
24904		-9.105558	3.481696	9.361893	-0.251073	0.562307	-0.476476	1.665283	-0.549072	-0.711182
24905		-8.575139	6.463551	10.543335	-0.231389	0.896562	-0.561203	1.657715	-0.527100	-0.669189
24906		-8.268438	5.433898	13.202784	-0.119331	1.607916	-0.736249	1.656494	-0.493896	-0.614990
24907		-5.986948	3.984429	15.773498	-0.309563	2.546743	-1.056280	1.659912	-0.467529	-0.550049
24908		-5.623431	2.465749	15.665032	0.130135	3.494634	-1.206301	1.654297	-0.436523	-0.463867
24909		-1.936162	0.291701	15.543714	0.519315	4.620047	-1.287818	1.655029	-0.396973	-0.356689
24910		-2.000285	0.384027	13.745409	1.213891	5.859543	-1.429014	1.656006	-0.366211	-0.240967
24911		-5.862711	-0.253126	11.419572	1.439463	6.888692	-1.380191	1.641357	-0.335449	-0.105957
24912		-1.801401	-0.100791	11.132533	1.509908	7.431360	-1.138594	1.619873	-0.304932	0.039551
24913		-2.813729	0.999241	7.705422	1.715448	8.282823	-1.083667	1.587646	-0.283203	0.187256
24914		-8.225035	2.003511	7.224101	1.872816	8.782720	-0.860445	1.540039	-0.263672	0.328613
24915		-20.121977	4.002377	4.677171	2.016651	8.617216	-1.015772	1.482910	-0.232910	0.448486
24916		-25.326829	6.000865	1.888938	1.793941	7.568503	-1.093237	1.430420	-0.197754	0.544922
24917		-18.631799	7.804132	1.289854	1.609276	6.309248	-1.407185	1.375488	-0.160400	0.615479
24918		-13.330114	8.949498	1.959841	1.462140	5.266706	-1.607529	1.332031	-0.127197	0.663330
24919		-7.538082	6.259300	4.622767	1.003582	4.658866	-1.997446	1.297363	-0.089600	0.702393
24920		-8.067767	2.839434	6.465216	0.683661	4.229353	-2.035141	1.253662	-0.052246	0.739258
24921		-5.792198	0.381270	7.923005	0.745800	4.000363	-2.104028	1.212646	-0.023438	0.767822
24922		-10.335484	-3.640322	11.347622	1.484389	3.505443	-2.292641	1.179932	0.020752	0.789795
24923		-14.471885	-3.917060	14.595197	2.905503	2.749501	-2.817781	1.157959	0.083008	0.800537
24924		-15.205276	0.470642	16.743505	4.102045	1.827151	-3.334890	1.144043	0.162842	0.800293
24925		-12.781228	5.257879	16.970527	4.512715	1.168970	-3.772143	1.130371	0.242676	0.789307
24926		-11.640605	10.945476	17.273505	4.386177	0.822101	-4.368087	1.118896	0.320313	0.780762
24927		-11.834685	13.127436	17.211347	3.729185	0.550366	-4.733166	1.104736	0.415771	0.767090
24928		-12.697504	14.532234	16.526012	3.020380	0.291456	-4.808484	1.093506	0.486816	0.748047
24929		-14.556301	16.858901	16.984006	2.214126	0.031547	-4.584504	1.077881	0.560059	0.750000
24930		-15.454746	19.709374	17.166833	1.020102	-0.203401	-4.051004	1.069580	0.608887	0.735840
24931		-14.389779	22.547021	16.422921	-0.540621	-0.365132	-3.376077	1.068359	0.642334	0.751953
24932		-12.596459	22.139820	15.095852	-2.198327	-0.491028	-2.655600	1.070068	0.657715	0.768555
24933		-10.899727	17.185457	13.384651	-3.216066	-0.648940	-1.666200	1.081299	0.653320	0.791992
24934		-11.189880	11.885324	11.602095	-3.279527	-0.962247	-0.311582	1.110840	0.635498	0.811768
24935		-10.909186	8.931527	10.018715	-2.667072	-1.462314	1.052073	1.147461	0.604492	0.823486
24936		-10.501224	10.059425	9.142029	-2.090706	-2.148965	2.139715	1.210938	0.571289	0.818359
24937		-8.961776	11.279099	8.215162	-1.963145	-2.897747	2.710898	1.263672	0.522461	0.809570
24938		-6.505690	9.527498	7.256774	-2.045934	-3.513291	2.929095	1.340820	0.480469	0.787842
24939		-5.299152	6.670171	6.511798	-1.883901	-3.985965	3.067546	1.409668	0.423096	0.755859
24940		-5.264511	4.784313	6.501829	-1.350230	-4.421132	3.179508	1.485107	0.363281	0.711426
24941		-7.181826	3.590167	6.845493	-0.626218	-4.936163	3.338037	1.564941	0.312500	0.645264
24942		-8.896097	3.911575	7.219019	0.045582	-5.593835	3.481923	1.647217	0.257568	0.556152
24943		-10.389527	4.377123	7.563694	0.578254	-6.271644	3.518747	1.720703	0.195801	0.454346
24944		-10.075437	3.808345	7.572030	0.926052	-6.860682	3.569968	1.794434	0.129639	0.331299
24945		-8.444397	2.702086	7.806146	1.244558	-7.156414	3.637389	1.848145	0.059082	0.195801
24946		-8.603526	1.745410	8.147178	1.626480	-7.219882	3.726629	1.895752	-0.024902	0.058350
24947		-9.593237	0.506425	9.147531	2.070781	-7.202439	3.842453	1.923340	-0.110840	-0.089844
24948		-11.281153	-0.922135	10.064394	2.523012	-7.215354	4.037398	1.940674	-0.217041	-0.237305
24949		-13.314987	-1.450112	10.689661	2.916684	-7.325315	4.332876	1.940186	-0.329834	-0.378418
24950		-15.211459	0.238605	11.390537	3.021721	-7.428599	4.569748	1.917969	-0.456055	-0.521240
24951		-17.870796	1.794598	12.096418	2.648480	-7.450422	4.681161	1.877930	-0.584473	-0.664307
24952		-22.684456	1.692698	12.491166	2.057484	-7.393024	4.778069	1.811279	-0.719482	-0.809326
24953		-30.624413	0.914850	11.083428	1.444777	-7.432567	5.028617	1.726807	-0.845703	-0.948486
24954		-35.389286	-0.494052	6.411115	0.714098	-7.406239	5.258111	1.612793	-0.960938	-1.085693
24955		-36.999147	-2.975086	-0.369110	0.080055	-6.759942	5.132197	1.496094	-1.060791	-1.210938
24956		-38.328599	-4.868039	-8.154615	-0.329239	-5.557549	4.474518	1.385010	-1.131592	-1.302734
24957		-38.189605	-5.963012	-15.026168	-0.396331	-4.248549	3.267479	1.291016	-1.180420	-1.363525
24958		-41.598308	-9.583916	-20.582180	0.002198	-3.183232	2.188824	1.223145	-1.207031	-1.409668
24959		-40.361214	-10.809831	-24.739290	0.367614	-2.304704	1.552225	1.177490	-1.244873	-1.432373
24960		-33.495668	-9.498745	-24.449827	0.186747	-1.159207	1.213188	1.157959	-1.253662	-1.438477
24961		-32.148918	-7.984655	-24.210922	-0.446180	-0.128924	1.098451	1.146973	-1.260498	-1.444824
24962		-29.909504	-8.233900	-24.188427	-0.593253	0.892071	1.158158	1.153809	-1.264893	-1.425537
24963		-21.557583	-2.393949	-20.582597	-0.725907	2.399738	1.081499	1.184814	-1.267090	-1.395508
24964		-23.415322	-3.109834	-20.109140	-1.125519	4.111423	0.636516	1.259766	-1.247070	-1.340576
24965		-11.938923	8.646193	-19.598189	-2.074569	5.858803	-1.528851	1.386475	-1.180664	-1.250488
24966		-22.305036	-2.732878	17.116857	-0.263954	8.064116	-4.335564	1.537842	-1.114258	-1.104980
24967		-44.288457	17.882788	29.019032	-0.528944	6.743556	-3.607476	1.643799	-1.027832	-1.002930
24968		-40.096224	11.970824	21.484957	-2.435007	5.546831	-3.261517	1.705322	-0.941406	-0.924561
24969		-27.914476	-1.120368	14.716956	-1.941785	2.517086	-2.007255	1.727539	-0.870361	-0.894531
24970		-12.984726	-11.172918	6.728319	-1.117726	0.961178	-1.747546	1.730225	-0.821533	-0.870605
24971		-16.008609	-2.015705	4.826333	-0.728568	0.019465	-0.639771	1.722412	-0.786133	-0.865234
24972		-8.585055	-0.145610	9.967521	-0.765641	-0.214676	-0.081251	1.705811	-0.759521	-0.851318
24973		2.084485	7.285376	11.595259	-0.731513	-0.040854	0.126763	1.689697	-0.739502	-0.843506
24974		-12.031347	7.851850	6.027317	-0.839510	-0.093353	0.098415	1.682129	-0.717529	-0.835693
24975		-7.562046	7.611566	7.692582	-0.910832	-0.067815	-0.131173	1.661133	-0.686279	-0.832275
24976		-8.536552	6.024069	7.494072	-0.846194	-0.099417	-0.179475	1.653564	-0.659668	-0.824707
24977		-6.564994	2.922392	9.372115	-0.681434	-0.002019	-0.261222	1.643555	-0.626465	-0.802246
24978		-6.091724	2.802693	9.895484	-0.511773	0.226492	-0.362510	1.642822	-0.604492	-0.783936
24979		-9.567624	4.581715	9.236857	-0.411885	0.337315	-0.340681	1.637695	-0.584473	-0.759033
24980		-8.304102	3.548972	9.298763	-0.279217	0.602115	-0.345653	1.634521	-0.558105	-0.728027
24981		-8.546851	5.735440	10.660085	-0.254114	0.943397	-0.425757	1.624756	-0.535889	-0.688232
24982		-8.688591	3.151963	12.405975	-0.267818	1.517347	-0.557134	1.621338	-0.504883	-0.636230
24983		-5.035652	4.935164	15.376407	-0.004942	2.468424	-0.788875	1.617920	-0.474121	-0.567139
24984		-4.201811	1.703224	16.169906	0.149409	3.549667	-1.131150	1.627930	-0.445557	-0.485107
24985		-3.378854	1.426553	15.312086	0.740446	4.578938	-1.245046	1.631104	-0.412354	-0.381836
24986		-2.588422	0.456902	13.700956	1.244885	5.696394	-1.398914	1.627686	-0.384033	-0.263916
24987		-3.584912	-1.031762	12.546674	1.528015	6.771108	-1.350400	1.617432	-0.351074	-0.126953
24988		-5.172286	1.041135	10.733232	1.601803	7.511015	-1.102919	1.598633	-0.331543	0.012451
24989		-1.509954	3.347520	8.997238	1.747449	8.299009	-0.992610	1.568115	-0.298584	0.157959
24990		-6.268899	4.251387	8.682230	1.954298	8.950598	-1.076463	1.529053	-0.268066	0.303223
24991		-18.106300	7.194596	5.280972	2.137795	8.863950	-1.330961	1.465088	-0.230713	0.431396
24992		-25.621898	4.821979	0.686194	2.161340	7.786759	-1.411550	1.416992	-0.197754	0.540527
24993		-19.650652	6.642796	-0.299795	2.207748	6.312903	-1.534230	1.364502	-0.158203	0.598389
24994		-13.361894	7.055763	0.355751	2.030324	5.174119	-1.569394	1.325439	-0.125000	0.650391
24995		-8.406266	5.198661	4.146341	1.585086	4.515031	-1.749536	1.281738	-0.085205	0.687256
24996		-8.951176	3.987335	7.143308	1.071475	4.003966	-1.850104	1.242432	-0.047607	0.713379
24997		-6.840362	0.634960	9.636870	0.897920	3.836767	-1.903065	1.206055	-0.023438	0.750732
24998		-12.524403	-3.347483	12.891787	1.627987	3.324756	-2.043821	1.177979	0.014160	0.762207
24999		-14.248911	-0.021948	15.725073	2.927931	2.488527	-2.441795	1.160400	0.071777	0.775391
25000		-14.271254	2.177918	17.560118	3.635084	1.633212	-2.906977	1.149658	0.131836	0.773682
25001		-9.414629	6.353136	17.480219	3.801344	1.161627	-3.375578	1.127197	0.207275	0.771240
25002		-9.931056	9.163612	17.606604	3.695675	0.986752	-3.963830	1.118164	0.276123	0.762939
25003		-11.471174	10.563873	16.761813	3.395005	0.702077	-4.315292	1.113770	0.344971	0.758789
25004		-13.059729	12.587792	15.915629	3.086162	0.305162	-4.449278	1.104492	0.429199	0.747803
25005		-14.197948	16.422772	15.429619	2.570989	-0.139657	-4.514654	1.095703	0.491455	0.733154
25006		-14.869852	19.007100	15.243046	1.740131	-0.546118	-4.535220	1.091309	0.555664	0.720703
25007		-13.614814	18.940363	14.621451	0.770980	-0.848706	-4.317857	1.087158	0.617920	0.710205
25008		-11.331948	18.093356	14.034616	-0.108306	-1.059143	-3.746187	1.085938	0.655762	0.709229
25009		-9.402250	16.911288	12.637631	-0.838546	-1.231512	-2.871499	1.093994	0.684570	0.710449
25010		-7.585654	15.049076	11.005690	-1.292199	-1.410072	-1.812243	1.117920	0.702393	0.716553
25011		-6.191671	11.873278	9.686457	-1.334988	-1.599664	-0.570150	1.146729	0.706787	0.716553
25012		-5.178068	10.531955	8.661459	-1.124779	-1.875315	0.764948	1.189209	0.697998	0.710693
25013		-4.428821	10.742393	7.869656	-0.990233	-2.244594	1.953029	1.238770	0.678223	0.711426
25014		-4.837228	10.584261	7.365713	-1.045281	-2.715088	2.838353	1.306885	0.642822	0.702148
25015		-5.382804	9.028445	7.009700	-1.115647	-3.268710	3.467257	1.377686	0.587402	0.672363
25016		-5.831377	6.922983	7.108162	-1.059335	-3.839488	3.967440	1.459961	0.527832	0.642822
25017		-7.093369	5.545206	7.651085	-0.762079	-4.410796	4.346047	1.537842	0.461426	0.587891
25018		-10.007677	4.982054	8.088413	-0.381727	-5.110030	4.607299	1.623047	0.384033	0.518311
25019		-11.615020	5.160637	8.211995	-0.156106	-5.981807	4.729729	1.710449	0.304688	0.419189
25020		-10.503196	4.541176	8.549314	0.011148	-6.697979	4.707326	1.778076	0.220703	0.303223
25021		-9.528572	3.009325	8.988686	0.332915	-7.027658	4.634638	1.843750	0.125732	0.172607
25022		-9.818679	2.269029	9.419498	0.779774	-7.174239	4.574339	1.891846	0.030762	0.026855
25023		-10.677183	1.305265	10.270780	1.305322	-7.245453	4.477450	1.930908	-0.068604	-0.110107
25024		-12.941536	0.356964	10.984332	1.956978	-7.356789	4.363504	1.943848	-0.174805	-0.266113
25025		-16.646497	-0.228518	11.162255	2.703066	-7.533407	4.346144	1.936523	-0.287598	-0.415771
25026		-19.645838	1.907297	10.994207	3.117720	-7.742206	4.342710	1.920898	-0.411377	-0.569336
25027		-22.471414	3.304323	10.658963	2.991859	-7.832729	4.298322	1.880859	-0.533203	-0.718750
25028		-25.445958	3.310411	9.685119	2.618633	-7.667439	4.298599	1.821045	-0.668213	-0.855469
25029		-29.993184	3.304119	7.391559	2.125133	-7.268397	4.337116	1.740234	-0.781250	-0.988281
25030		-36.127090	1.174078	2.933784	1.563402	-6.715104	4.402957	1.650635	-0.889893	-1.108887
25031		-40.641790	-4.041343	-3.504627	1.123946	-5.842131	4.571700	1.536377	-0.996338	-1.204102
25032		-41.484169	-7.359690	-10.030244	0.713031	-4.669355	4.623291	1.434814	-1.087158	-1.269775
25033		-39.195367	-8.008546	-15.514342	0.157338	-3.263789	4.102802	1.356934	-1.156006	-1.321289
25034		-40.858974	-7.536574	-22.459726	-0.633905	-1.954600	3.097558	1.304443	-1.180420	-1.356934
25035		-38.173504	-12.096642	-27.069136	-1.153343	-0.825092	2.057270	1.271484	-1.189453	-1.375977
25036		-33.769075	-14.534622	-26.473046	-1.062054	0.296278	1.597536	1.256104	-1.198242	-1.375977
25037		-31.455480	-12.656017	-22.870560	-0.801109	1.270557	1.508511	1.256348	-1.207275	-1.360840
25038		-29.763889	-11.672544	-19.141355	-0.552996	2.180176	1.715226	1.270020	-1.220703	-1.317871
25039		-21.628145	-1.740338	-13.479760	-1.233755	3.355765	1.459382	1.314209	-1.209473	-1.277588
25040		-19.661588	-8.519883	-12.184435	-1.796126	4.667217	0.769161	1.382080	-1.178467	-1.208008
25041		-7.689734	-0.673261	-12.771017	-2.185921	5.794542	-1.493644	1.481934	-1.109863	-1.124512
25042		-15.486273	-0.649753	15.701170	-0.329246	7.143858	-4.776835	1.614502	-1.016846	-0.992920
25043		-54.338215	26.981327	29.594528	-1.848120	6.123915	-5.028398	1.701660	-0.899170	-0.908691
25044		-33.253826	1.127201	10.845330	-3.358754	2.983203	-3.076354	1.727539	-0.803711	-0.879639
25045		-16.309761	-2.377181	15.303262	-2.283435	0.644268	-2.137570	1.727295	-0.730469	-0.879639
25046		-14.698615	-12.566969	8.386480	-1.160063	-0.039875	-1.240242	1.721436	-0.690674	-0.876465
25047		-17.741239	-7.772780	7.849390	-0.863138	-0.325763	-0.281252	1.707275	-0.664063	-0.866699
25048		-3.146485	4.689362	11.930852	-0.895064	-0.254991	0.134047	1.691162	-0.646240	-0.861084
25049		-1.658561	6.199362	10.695084	-0.807092	0.013200	0.139645	1.683594	-0.619629	-0.851074
25050		-10.613148	5.452876	6.463392	-0.745732	0.017644	0.071012	1.671631	-0.599854	-0.836914
25051		-7.330089	5.821252	8.283004	-0.676063	0.090668	-0.003560	1.659912	-0.579834	-0.816406
25052		-9.908142	2.850094	8.445076	-0.510981	0.100574	0.072142	1.643555	-0.560059	-0.797852
25053		-6.995561	3.939156	10.138983	-0.351819	0.263999	-0.027424	1.638428	-0.542236	-0.777344
25054		-6.555549	4.579299	8.925681	-0.288945	0.427894	-0.233316	1.630859	-0.518066	-0.744141
25055		-7.859385	2.286698	9.510096	-0.190646	0.585234	-0.203554	1.616699	-0.495850	-0.710693
25056		-8.778053	3.188623	9.447628	-0.058618	0.860355	-0.248290	1.609131	-0.471680	-0.668945
25057		-8.300501	5.706775	11.178353	-0.090176	1.332267	-0.333409	1.604004	-0.451904	-0.614502
25058		-8.559909	3.792905	13.415208	0.130893	2.005748	-0.446305	1.596436	-0.431885	-0.557861
25059		-4.147480	4.187876	15.801434	-0.004629	3.026957	-0.848794	1.593018	-0.401123	-0.482178
25060		-5.031725	2.428400	15.277210	0.484299	4.050332	-1.006689	1.589844	-0.372559	-0.394043
25061		-3.469945	1.422827	14.265122	0.787696	4.903531	-1.098419	1.584229	-0.343994	-0.286621
25062		-2.856565	-0.044662	13.451042	1.301394	5.764920	-1.147786	1.567383	-0.317627	-0.172852
25063		-4.676612	1.203478	12.250413	1.576278	6.743758	-1.144854	1.555176	-0.291504	-0.061035
25064		-2.720665	2.151863	10.769245	1.606805	7.609501	-1.186826	1.527100	-0.262939	0.078125
25065		-1.943947	2.467971	8.239089	1.724578	8.412500	-1.192573	1.492676	-0.239014	0.213135
25066		-12.611827	3.687191	7.047473	1.938959	8.663945	-1.251832	1.440430	-0.215088	0.339355
25067		-19.856749	4.204622	4.598687	1.970207	8.231815	-1.478335	1.383057	-0.173096	0.446289
25068		-24.119081	3.099801	1.966550	2.301230	7.142632	-1.282047	1.341797	-0.140137	0.525635
25069		-17.574603	3.136516	2.514695	2.709838	6.205043	-0.994563	1.289551	-0.115967	0.586182
25070		-12.596076	6.780817	3.694259	2.599442	5.327121	-1.075621	1.252930	-0.091797	0.636230
25071		-9.338408	4.529800	4.911542	1.995627	4.731797	-1.046422	1.211914	-0.063232	0.673340
25072		-10.843270	2.287920	5.492634	1.743210	4.140126	-0.928808	1.170898	-0.038818	0.702148
25073		-10.346476	1.193890	7.355757	1.961632	3.693809	-0.910887	1.145752	-0.016846	0.729004
25074		-10.199432	3.040150	11.634687	2.407061	3.290656	-1.184779	1.120361	0.007568	0.740967
25075		-15.292185	3.611964	15.069258	3.129203	2.437225	-1.678475	1.105469	0.052002	0.754395
25076		-16.102929	6.898493	16.792631	3.517134	1.488743	-2.273491	1.101563	0.105225	0.750732
25077		-11.616871	9.269722	16.507079	3.528510	0.689203	-2.833427	1.101807	0.165039	0.740479
25078		-11.160610	12.293833	16.249501	3.187937	0.150884	-3.439186	1.106445	0.229492	0.725830
25079		-11.959353	14.571815	16.591261	2.479537	-0.353367	-4.114307	1.104492	0.291748	0.709229
25080		-11.082678	14.160711	16.493173	1.820180	-0.721297	-4.578804	1.106934	0.351563	0.698975
25081		-10.739336	13.946197	16.252817	1.395795	-0.854641	-4.785157	1.104736	0.422852	0.677734
25082		-10.159604	14.953932	16.143329	1.035645	-0.870038	-4.743752	1.107178	0.482666	0.669678
25083		-8.974208	16.775542	15.885110	0.484398	-0.870603	-4.466132	1.109863	0.542725	0.659424
25084		-7.878759	17.442699	15.204561	-0.316379	-0.898467	-3.974206	1.106201	0.584717	0.660400
25085		-7.060311	16.424342	13.646592	-1.175605	-1.056390	-3.223368	1.114014	0.620361	0.665771
25086		-6.379169	14.078494	11.913529	-1.804380	-1.356684	-2.258529	1.131104	0.642578	0.669434
25087		-5.039089	10.406196	10.375579	-1.986469	-1.740663	-1.059950	1.153076	0.644775	0.677979
25088		-3.478549	8.900874	8.917534	-1.819190	-2.081393	0.199398	1.191162	0.640381	0.678223
25089		-2.887112	9.215549	7.690658	-1.661449	-2.450211	1.262811	1.240723	0.620605	0.679199
25090		-2.456066	8.965980	6.785614	-1.636159	-2.882542	2.067414	1.306641	0.585205	0.665771
25091		-2.784492	7.357772	6.312274	-1.499992	-3.309962	2.701806	1.367920	0.549805	0.643799
25092		-3.800524	6.409066	6.365502	-1.217611	-3.754402	3.230393	1.438477	0.505615	0.615723
25093		-5.324749	6.142586	6.686304	-0.872887	-4.243316	3.636518	1.527100	0.450439	0.571045
25094		-8.193402	6.300599	7.263202	-0.521245	-4.866166	3.920865	1.598145	0.392822	0.511475
25095		-10.765681	6.706750	7.598769	-0.245461	-5.625513	4.109719	1.680908	0.324463	0.429199
25096		-11.259782	6.635787	8.041389	-0.037748	-6.328403	4.210977	1.766113	0.240479	0.321533
25097		-10.911487	5.623285	8.604395	0.165384	-6.856735	4.289725	1.835693	0.165527	0.194580
25098		-11.107339	4.927444	8.882914	0.435634	-7.195957	4.357525	1.890137	0.079590	0.061523
25099		-11.356561	4.081794	9.075759	0.725267	-7.346886	4.378534	1.931641	-0.022217	-0.083740
25100		-11.545302	2.631190	10.169602	1.169949	-7.324150	4.377461	1.955322	-0.123779	-0.233643
25101		-13.239074	2.046331	11.283059	1.566501	-7.356814	4.379764	1.963867	-0.234375	-0.385254
25102		-16.122549	1.362659	11.966603	2.005962	-7.344357	4.470076	1.952148	-0.347168	-0.539307
25103		-20.626992	3.719294	12.887020	2.229502	-7.345072	4.494524	1.923096	-0.468750	-0.688721
25104		-26.295745	6.191475	13.147403	1.905095	-7.412602	4.387656	1.876221	-0.586182	-0.836182
25105		-30.458699	5.051032	11.793112	1.277012	-7.447222	4.291601	1.806641	-0.698975	-0.981934
25106		-34.012901	1.872085	7.635411	0.813405	-7.257669	4.347272	1.719238	-0.803223	-1.127930
25107		-37.353482	-1.958348	1.391927	0.538586	-6.635196	4.326911	1.622559	-0.902832	-1.252930
25108		-40.510945	-5.516670	-5.930094	0.387619	-5.616408	4.070500	1.518311	-0.980469	-1.348877
25109		-39.293410	-7.525562	-13.310560	0.225420	-4.437962	3.362978	1.427002	-1.042480	-1.421875
25110		-38.799458	-11.116128	-20.095285	0.221521	-3.074462	2.437539	1.366211	-1.084717	-1.465576
25111		-38.303750	-12.059667	-24.571512	0.194543	-1.890857	1.574902	1.322510	-1.111328	-1.490479
25112		-35.543338	-12.754234	-25.674239	0.075475	-0.764065	0.942204	1.311768	-1.122314	-1.498779
25113		-32.750051	-10.583508	-24.370127	-0.234374	0.184189	0.484705	1.318604	-1.124512	-1.492432
25114		-29.916016	-9.656162	-22.371309	-0.641578	1.209708	-0.117976	1.360352	-1.111328	-1.473389
25115		-28.114520	-11.222393	-20.130968	-0.499183	2.362258	-0.605396	1.413086	-1.095703	-1.428955
25116		-32.072064	-2.127753	-26.948868	-0.907568	3.807919	-2.075696	1.520264	-1.035889	-1.349365
25117		-19.156945	-13.149228	-9.409834	-0.439827	7.108813	-4.412967	1.677490	-0.956055	-1.200195
25118		-46.633554	21.832405	27.969623	0.116207	7.177998	-4.431282	1.783447	-0.869873	-1.066162
25119		-30.326355	28.070265	28.016458	-2.043936	4.836554	-3.265036	1.840088	-0.770020	-0.988281
25120		-16.325303	-6.533431	11.915492	-1.819423	2.833141	-2.149335	1.849121	-0.703613	-0.939209
25121		-17.323963	-6.803588	5.469313	-1.356771	1.023248	-1.934772	1.849365	-0.648193	-0.925781
25122		-18.102332	-0.706841	1.306078	-1.214712	-0.184013	-0.965692	1.832520	-0.608154	-0.920654
25123		-11.498704	-2.660857	10.289011	-1.108950	-0.357744	-0.250038	1.813721	-0.579346	-0.919678
25124		-4.576907	0.932869	13.662088	-1.013679	-0.399463	-0.014200	1.792969	-0.554932	-0.918213
25125		-5.217264	4.423822	10.406876	-0.848816	-0.015403	0.200507	1.770264	-0.541748	-0.910400
25126		-8.959039	5.903107	7.781521	-0.816952	-0.026807	0.082567	1.760742	-0.526367	-0.891602
25127		-8.698260	6.073366	6.185613	-0.734784	0.035656	-0.129576	1.744385	-0.504150	-0.879639
25128		-7.528065	4.870849	8.288679	-0.651856	-0.001994	-0.211722	1.739502	-0.488525	-0.867432
25129		-6.665734	3.245038	9.334935	-0.436949	0.173042	-0.401687	1.723145	-0.470947	-0.840332
25130		-8.231246	4.016451	9.419584	-0.316726	0.297237	-0.473090	1.715576	-0.446777	-0.807129
25131		-7.601493	4.052147	8.919680	-0.222049	0.453659	-0.447059	1.706055	-0.426758	-0.775879
25132		-8.861218	3.625182	8.981404	-0.139115	0.680936	-0.461452	1.692139	-0.413574	-0.738281
25133		-8.883237	5.584171	10.975893	-0.233425	1.091407	-0.572820	1.686768	-0.389404	-0.690186
25134		-8.120659	4.097370	14.002887	-0.345078	1.880546	-0.660808	1.672607	-0.371826	-0.631348
25135		-5.234429	3.786478	15.917540	-0.233900	2.939101	-0.810405	1.669189	-0.336426	-0.549561
25136		-4.791742	3.327476	17.234839	-0.049471	4.100803	-1.033297	1.659180	-0.312256	-0.456787
25137		-2.926604	2.033699	16.446190	0.361183	5.142493	-1.121119	1.655762	-0.281494	-0.351563
25138		-1.678714	0.634440	15.050914	1.061204	6.178870	-1.446553	1.645752	-0.259766	-0.237793
25139		-3.396279	0.162322	13.325644	1.394479	7.269464	-1.650367	1.635498	-0.229004	-0.102783
25140		-2.884972	0.400300	10.127679	1.412732	8.038985	-1.548291	1.609619	-0.193848	0.036133
25141		-2.943556	1.253347	8.874341	1.502291	8.802379	-1.481387	1.579102	-0.158936	0.179443
25142		-12.622888	3.617893	7.087620	1.517525	8.936723	-1.521302	1.535645	-0.130371	0.316162
25143		-20.795149	8.419008	4.230067	1.373304	8.534858	-1.745685	1.487549	-0.095215	0.425293
25144		-22.527252	5.605737	1.926488	1.230582	7.466401	-1.897290	1.432617	-0.055664	0.506836
25145		-19.177292	5.695403	2.433743	1.495811	6.315791	-1.865178	1.388672	-0.011475	0.568848
25146		-11.156611	4.409091	1.758177	1.656234	5.439529	-1.818403	1.347412	0.023926	0.614258
25147		-9.687357	2.439827	3.535397	1.715853	4.729300	-1.700851	1.305908	0.059082	0.655518
25148		-6.588334	1.774922	5.357825	1.686763	4.348151	-1.847384	1.260010	0.098877	0.686035
25149		-8.275655	5.059230	7.343488	1.550917	4.329424	-1.920841	1.223145	0.136475	0.716553
25150		-10.949773	5.110455	9.868652	1.252491	4.272771	-2.087730	1.188232	0.178467	0.744873
25151		-15.744508	3.621297	13.196434	1.480513	3.953889	-2.242992	1.149170	0.213867	0.766846
25152		-21.947834	5.613676	15.753765	1.854164	2.908273	-2.334731	1.125488	0.258301	0.769775
25153		-18.738108	8.388384	16.807650	2.114546	1.780588	-2.494579	1.112793	0.309326	0.770264
25154		-15.211277	10.936716	17.364112	2.068390	1.079024	-3.022707	1.097656	0.364746	0.762207
25155		-13.838061	11.421447	17.440390	1.878894	0.662801	-3.554483	1.093506	0.424805	0.743408
25156		-13.308413	12.406068	17.344288	1.740001	0.383509	-4.019613	1.078125	0.486816	0.733154
25157		-13.531877	13.751900	17.097011	1.621463	0.175165	-4.355818	1.069092	0.557861	0.724609
25158		-15.145823	16.106963	16.099738	1.384983	-0.170550	-4.505371	1.053955	0.615723	0.712158
25159		-15.478658	19.470350	15.948007	0.793764	-0.758401	-4.454979	1.042969	0.673340	0.708496
25160		-13.883554	21.185887	15.821965	-0.190496	-1.321710	-4.135722	1.039307	0.724365	0.694092
25161		-11.659045	19.829304	14.242062	-1.287217	-1.886415	-3.493989	1.042480	0.764404	0.693115
25162		-8.857114	17.126954	12.018385	-2.010698	-2.380896	-2.549349	1.061768	0.782227	0.694824
25163		-5.925302	12.800977	10.121749	-2.136096	-2.755798	-1.400633	1.088135	0.791016	0.694580
25164		-3.660446	10.567380	8.299873	-1.861772	-3.081704	-0.042161	1.135010	0.791260	0.686279
25165		-2.607380	10.322531	6.677779	-1.594501	-3.421825	1.295814	1.193604	0.769043	0.672363
25166		-1.207915	10.384827	5.631898	-1.493168	-3.713317	2.340965	1.256836	0.747070	0.666992
25167		-0.914410	9.173586	5.178477	-1.428505	-3.924000	3.128820	1.331787	0.700684	0.639160
25168		-2.379025	7.710198	5.228514	-1.201969	-4.183077	3.789103	1.420410	0.647705	0.611328
25169		-4.777958	6.297460	5.959028	-0.717824	-4.511542	4.351578	1.507324	0.585693	0.560547
25170		-8.737685	6.543747	6.492207	-0.248246	-5.128204	4.882297	1.601318	0.506104	0.497559
25171		-10.206515	8.296888	6.879289	-0.163517	-5.949047	5.139497	1.695313	0.426758	0.406982
25172		-9.370863	8.021219	7.075177	-0.240525	-6.557701	5.120374	1.781250	0.327148	0.312744
25173		-8.734546	6.293254	7.234486	-0.189134	-6.848115	4.956271	1.853760	0.232178	0.190674
25174		-9.247492	4.535843	7.778094	0.176564	-6.975534	4.832942	1.912842	0.135010	0.057861
25175		-10.936813	3.225365	8.730919	0.797863	-7.064816	4.776643	1.954590	0.026611	-0.078857
25176		-13.141546	2.947791	9.790475	1.553175	-7.229585	4.769964	1.980713	-0.085938	-0.226074
25177		-15.616723	3.075413	10.336001	2.288960	-7.420249	4.815912	1.983154	-0.214355	-0.377197
25178		-17.433592	4.721504	10.871314	2.755198	-7.583272	4.825421	1.967529	-0.340576	-0.524414
25179		-20.849733	5.102795	10.984836	2.945092	-7.615705	4.849353	1.945801	-0.484375	-0.671143
25180		-24.900819	5.397885	10.355306	2.952805	-7.501140	5.003748	1.886475	-0.630615	-0.817871
25181		-29.176268	6.501144	9.020817	2.594444	-7.268069	5.191214	1.804443	-0.770264	-0.939453
25182		-34.154012	5.019183	5.937622	2.028119	-6.822543	5.333900	1.709229	-0.916504	-1.058838
25183		-39.799003	0.131028	0.838921	1.613568	-6.092597	5.461735	1.595703	-1.042969	-1.157715
25184		-44.134539	-5.578806	-5.796336	1.477663	-5.143334	5.464904	1.466064	-1.160645	-1.229248
25185		-43.385047	-6.628063	-12.175064	1.247211	-4.127963	4.926121	1.357910	-1.253906	-1.273926
25186		-43.479845	-7.691925	-19.281869	0.530663	-2.939902	3.774780	1.277344	-1.309326	-1.317383
25187		-41.573388	-8.240333	-25.820088	-0.606948	-1.919611	2.210513	1.224609	-1.324951	-1.340576
25188		-35.849858	-14.766143	-28.194777	-1.190089	-0.816615	1.114941	1.204102	-1.315918	-1.362061
25189		-32.554719	-15.988840	-27.326724	-1.008240	0.299153	0.838417	1.202393	-1.324951	-1.355469
25190		-30.534318	-14.655966	-23.322585	-0.629267	1.327439	0.890163	1.208984	-1.329346	-1.334229
25191		-25.667783	-8.430927	-16.406998	-0.625247	2.503239	0.934520	1.248779	-1.318359	-1.293945
25192		-25.261970	-9.000208	-15.850561	-1.735035	4.017658	0.155244	1.318848	-1.289551	-1.245605
25193		-12.842174	3.223337	-15.724051	-2.946602	5.611308	-2.137454	1.438232	-1.196289	-1.175293
25194		-10.406910	-8.623722	13.389684	-1.327909	7.255345	-6.299356	1.605469	-1.083252	-1.031250
25195		-59.970037	22.485880	30.928194	-1.254634	7.098552	-6.035033	1.721191	-0.947998	-0.930664
25196		-38.784034	16.266522	19.569278	-4.088869	4.057795	-4.423262	1.762207	-0.839111	-0.907959
25197		-26.190511	-8.153945	13.521838	-2.543627	0.378763	-2.121230	1.759521	-0.763672	-0.897461
25198		-11.547335	-13.357054	6.272047	-1.452353	-0.103540	-1.129776	1.747070	-0.719238	-0.903076
25199		-16.831019	-6.168118	6.320819	-1.155239	-0.547951	-0.206494	1.728271	-0.690430	-0.901855
25200		-4.961119	1.393578	12.006866	-1.124378	-0.464399	0.162877	1.709473	-0.663818	-0.898682
25201		-2.127876	4.555898	12.522668	-0.960720	-0.131085	0.261245	1.697754	-0.646240	-0.888428
25202		-10.285008	2.850371	9.277306	-0.762953	0.002910	0.212220	1.681641	-0.630859	-0.874268
25203		-7.028189	6.525847	9.371733	-0.658737	0.185733	0.041593	1.672119	-0.610840	-0.864258
25204		-8.691241	5.139270	7.088113	-0.545087	0.235442	-0.059111	1.664795	-0.593262	-0.834961
25205		-7.631411	2.481575	8.864251	-0.419356	0.251624	-0.215841	1.659180	-0.562256	-0.814697
25206		-6.366650	4.640076	9.301976	-0.329158	0.372001	-0.384671	1.645264	-0.546631	-0.789795
25207		-8.247175	4.549070	9.965171	-0.263083	0.471199	-0.360624	1.642578	-0.529053	-0.762695
25208		-9.476043	4.335003	8.865089	-0.193573	0.672555	-0.391206	1.637207	-0.502441	-0.718994
25209		-6.575607	7.809778	10.741100	-0.232981	1.004255	-0.499366	1.629639	-0.480469	-0.675049
25210		-9.037396	6.320788	13.282915	-0.519152	1.694342	-0.777886	1.621582	-0.442871	-0.625244
25211		-5.782166	4.517720	15.242482	-0.509880	2.709321	-1.130169	1.624756	-0.409668	-0.553955
25212		-4.553565	3.141635	16.457620	-0.305530	3.678949	-1.324765	1.616699	-0.372314	-0.463867
25213		-3.225871	0.470235	15.943148	0.263568	4.734824	-1.693954	1.619385	-0.330322	-0.367432
25214		-4.163905	-0.514306	14.322827	0.832627	5.756763	-1.904035	1.615967	-0.295166	-0.253906
25215		-3.991448	0.377657	12.807399	0.933309	6.633838	-1.920171	1.600830	-0.251221	-0.136230
25216		-2.148950	0.469086	11.307136	1.030819	7.444830	-1.945214	1.585693	-0.211670	-0.001709
25217		-2.750005	3.333303	8.531607	1.286414	8.296851	-1.974440	1.557617	-0.178711	0.137451
25218		-13.085165	3.399028	7.543879	1.302867	8.512119	-1.927749	1.513672	-0.136963	0.263184
25219		-19.439300	3.207707	5.178811	1.308140	7.967645	-1.934144	1.472168	-0.101807	0.374512
25220		-17.436477	1.380665	3.369518	1.690330	7.215124	-1.764440	1.419678	-0.066650	0.464600
25221		-11.939062	2.864259	4.873410	1.980202	6.468441	-1.757918	1.366943	-0.024658	0.535156
25222		-9.067775	1.997721	4.603709	2.238985	6.017352	-1.617308	1.321045	0.008301	0.597656
25223		-10.489310	3.232008	5.911733	2.166722	5.638594	-1.712891	1.277588	0.043457	0.649414
25224		-12.692040	3.657011	7.699473	1.773826	5.120133	-1.838819	1.229248	0.083252	0.694824
25225		-11.978601	0.911313	8.961633	1.598189	4.569038	-1.918454	1.192627	0.116455	0.725342
25226		-14.467860	-2.011875	12.146118	2.223323	4.121170	-2.159835	1.157715	0.158447	0.751709
25227		-16.899603	-1.199030	15.707105	3.211890	3.219863	-2.661210	1.133301	0.222900	0.766602
25228		-16.511961	3.605015	17.294445	3.868713	2.434591	-3.201190	1.106934	0.282715	0.764648
25229		-13.800347	8.173084	17.047889	3.779957	1.843263	-3.707091	1.088867	0.355957	0.766602
25230		-13.299768	11.023115	16.558253	3.465167	1.465008	-4.228088	1.071045	0.429199	0.758057
25231		-13.426227	12.673988	15.871253	2.882118	1.116301	-4.491244	1.050781	0.504639	0.753662
25232		-14.207985	14.594289	14.716316	2.239701	0.705165	-4.502778	1.035400	0.566650	0.741211
25233		-14.512468	17.313931	14.896827	1.413032	0.303597	-4.331155	1.017822	0.624512	0.735107
25234		-15.201182	18.209684	14.804447	0.371325	-0.085749	-3.887822	1.018555	0.673340	0.738037
25235		-13.415474	18.153356	14.471072	-0.776079	-0.529244	-3.079655	1.008545	0.704346	0.747559
25236		-10.663624	17.348980	14.161711	-1.822293	-0.831868	-2.067173	1.017334	0.710938	0.758057
25237		-8.921465	14.394615	12.775994	-2.508888	-1.082236	-0.940205	1.041992	0.704346	0.779785
25238		-6.826543	11.785433	11.492902	-2.671274	-1.453541	0.170586	1.071289	0.686523	0.788818
25239		-5.242449	8.913795	10.289649	-2.360139	-1.856634	1.121544	1.116699	0.664307	0.793945
25240		-6.113609	7.601257	8.995411	-1.827458	-2.448186	1.968988	1.168945	0.628906	0.799561
25241		-6.421366	8.293580	7.920623	-1.504637	-3.301245	2.564032	1.234619	0.597900	0.781738
25242		-5.034688	7.140000	7.176677	-1.374044	-4.101176	2.872878	1.309326	0.562744	0.749268
25243		-3.615431	4.947623	6.410766	-1.111219	-4.661611	3.106741	1.388916	0.511963	0.708740
25244		-3.042531	3.620818	6.263284	-0.617217	-5.004724	3.303092	1.475342	0.467773	0.653076
25245		-4.886538	3.500720	6.765729	-0.014023	-5.277290	3.490312	1.554932	0.419189	0.578369
25246		-8.341333	4.275622	7.436338	0.476624	-5.729720	3.671223	1.632813	0.362061	0.493652
25247		-10.228966	4.768070	8.047851	0.749889	-6.393214	3.861224	1.715332	0.293701	0.387695
25248		-9.770740	4.344369	8.546650	0.968738	-6.943308	4.068366	1.787109	0.220703	0.273438
25249		-8.689586	3.485627	9.363864	1.250821	-7.181572	4.258381	1.852539	0.134766	0.140381
25250		-9.416828	2.899732	10.374362	1.594853	-7.250699	4.432060	1.893799	0.041992	-0.011719
25251		-11.299482	1.512731	11.166357	2.043583	-7.336919	4.568970	1.921875	-0.059814	-0.156982
25252		-14.119543	0.056434	11.312229	2.691780	-7.471467	4.779158	1.930664	-0.179199	-0.308594
25253		-17.166746	0.824654	11.411628	3.299460	-7.618567	4.970605	1.928467	-0.309570	-0.455566
25254		-20.236457	2.836418	11.637210	3.402887	-7.748692	5.084949	1.899902	-0.447021	-0.606689
25255		-23.709511	4.280901	11.848726	3.029610	-7.752928	5.090575	1.847168	-0.593018	-0.753418
25256		-28.806255	3.792517	10.720771	2.464361	-7.627933	5.115193	1.773926	-0.723877	-0.885742
25257		-33.739791	3.179988	7.324059	1.747884	-7.463757	5.138008	1.680420	-0.852295	-1.029053
25258		-36.692847	0.092926	1.359916	1.059604	-7.036593	5.002533	1.557617	-0.969727	-1.143066
25259		-38.531010	-5.737430	-5.272697	0.762760	-6.049223	4.778581	1.456299	-1.067383	-1.236328
25260		-40.410996	-9.106104	-11.894637	0.852668	-4.673447	4.466089	1.349854	-1.145020	-1.300537
25261		-40.933551	-7.831885	-17.421301	0.772715	-3.371872	3.649003	1.265137	-1.207275	-1.337402
25262		-41.959495	-7.589729	-24.544831	0.334319	-2.180327	2.555668	1.212891	-1.242676	-1.366455
25263		-37.237744	-9.493801	-27.711504	-0.285442	-0.886516	1.608304	1.184570	-1.260498	-1.370117
25264		-34.202950	-11.047953	-27.851842	-0.855977	0.424651	1.290454	1.182373	-1.258301	-1.374512
25265		-33.490007	-11.203486	-26.346196	-0.849977	1.533899	1.240830	1.197998	-1.264893	-1.348877
25266		-28.698175	-7.313362	-20.749395	-0.546410	2.563690	1.162401	1.229248	-1.267334	-1.312500
25267		-32.588330	-1.699227	-21.480572	-1.704217	4.060099	0.386363	1.288086	-1.229492	-1.262207
25268		-17.994842	3.501983	-9.087935	-3.278023	5.780357	-1.407027	1.392334	-1.156250	-1.200195
25269		-8.789822	3.320115	16.508691	-2.314582	6.460705	-3.551837	1.518066	-1.058838	-1.089844
25270		-19.116167	-3.898198	31.015988	-1.383277	6.536662	-4.591261	1.621094	-0.950195	-0.986328
25271		-35.974154	-1.779080	18.272513	-1.112462	6.141466	-4.792094	1.715576	-0.848145	-0.895264
25272		-37.944226	13.582434	13.183241	-2.565359	2.870130	-3.892664	1.740967	-0.741699	-0.862061
25273		-14.528245	2.865919	-0.026521	-2.327313	1.363626	-1.743502	1.739258	-0.690674	-0.850830
25274		-19.145113	-17.022828	8.628685	-1.426997	-0.009880	-0.840758	1.735352	-0.641846	-0.843750
25275		-9.167459	-1.049258	9.970852	-1.117961	-0.446859	-0.565243	1.723389	-0.613037	-0.840576
25276		-4.863475	3.943005	13.693664	-0.791722	-0.226353	-0.133541	1.711182	-0.582031	-0.835205
25277		-8.424570	3.593427	11.128192	-0.738072	-0.065778	0.088518	1.695068	-0.564209	-0.820801
25278		-8.589829	3.228204	7.191103	-0.574384	0.117957	-0.016489	1.685303	-0.544434	-0.802490
25279		-10.643753	4.266157	6.843929	-0.523307	0.026643	-0.067254	1.671143	-0.520020	-0.790527
25280		-8.170250	3.431332	9.419996	-0.437804	0.010086	-0.063427	1.668213	-0.500000	-0.769775
25281		-5.381134	4.211935	9.319804	-0.294123	0.249438	-0.214915	1.651855	-0.478027	-0.745117
25282		-8.958014	5.666376	8.797711	-0.287621	0.319385	-0.276960	1.642090	-0.453613	-0.716064
25283		-8.922126	3.746372	8.491620	-0.255042	0.431554	-0.283060	1.628174	-0.438232	-0.682617
25284		-8.227089	5.488737	8.657511	-0.295212	0.646768	-0.367527	1.620361	-0.407227	-0.641113
25285		-9.312127	6.533471	11.385397	-0.496796	0.972646	-0.511663	1.610352	-0.376465	-0.608154
25286		-7.898071	4.807716	13.477592	-0.732758	1.778988	-0.807405	1.602539	-0.343262	-0.549805
25287		-4.492172	4.805889	16.613326	-0.627732	2.809481	-0.937895	1.592285	-0.305664	-0.480713
25288		-5.471817	2.085544	16.856808	-0.280342	3.821472	-1.249703	1.586426	-0.270508	-0.399170
25289		-4.380979	-0.027719	15.892269	0.339742	4.954567	-1.574589	1.576416	-0.241943	-0.300049
25290		-2.478957	-0.293182	14.976045	0.902500	5.977919	-1.822141	1.568359	-0.206787	-0.186523
25291		-2.744381	-0.306016	12.774847	1.054908	6.953856	-1.896813	1.553223	-0.166992	-0.062500
25292		-2.151588	0.727068	9.578042	1.302448	7.875561	-1.891353	1.524902	-0.127441	0.069824
25293		-3.258123	4.292827	7.807456	1.467118	8.527566	-1.830896	1.487793	-0.090332	0.197998
25294		-13.364959	4.192269	7.914965	1.409941	8.737150	-1.877987	1.439697	-0.059570	0.320068
25295		-18.929735	3.909872	3.536937	1.466307	8.332853	-1.998246	1.394043	-0.026611	0.425049
25296		-18.935559	1.014518	2.117258	1.894698	7.415320	-1.777283	1.336914	0.010742	0.504150
25297		-14.429597	1.348507	3.742778	2.386989	6.577723	-1.677043	1.288818	0.045898	0.577393
25298		-11.750081	2.502458	3.205031	2.691933	6.036780	-1.505834	1.238525	0.081299	0.629150
25299		-13.940918	4.100928	4.560278	2.514862	5.355975	-1.495695	1.190674	0.107666	0.668457
25300		-12.771493	5.662265	6.355789	1.942083	4.663777	-1.770117	1.147461	0.138672	0.698975
25301		-10.976766	3.368584	7.727764	1.491048	4.490569	-1.903241	1.113037	0.167480	0.729980
25302		-14.354474	-1.028980	11.208164	1.942544	4.232698	-2.027683	1.078125	0.211670	0.760254
25303		-19.246841	-0.100207	15.050191	3.322053	3.558848	-2.264460	1.050049	0.253662	0.767334
25304		-19.332613	6.965273	16.386450	3.878472	2.715491	-2.603956	1.030273	0.309082	0.769775
25305		-17.438543	10.993764	16.802376	3.793960	2.052054	-3.225931	1.010254	0.375732	0.770020
25306		-15.563419	13.477730	17.211456	3.092231	1.590211	-3.878949	0.997070	0.442383	0.772217
25307		-15.282581	13.357308	17.292425	2.296469	1.237598	-4.256260	0.977295	0.500000	0.766113
25308		-15.139600	13.383754	17.292874	1.680503	0.954479	-4.388562	0.959961	0.557617	0.770752
25309		-14.787693	14.687134	17.397469	1.077322	0.697881	-4.239970	0.947021	0.606445	0.771484
25310		-14.398046	17.099339	17.583347	0.245487	0.402503	-3.839356	0.934814	0.644043	0.782959
25311		-14.385751	19.301472	16.790904	-1.009865	-0.110814	-3.213412	0.936035	0.672852	0.794922
25312		-11.151452	17.891856	15.006198	-2.336802	-0.678349	-2.468366	0.944580	0.679688	0.813721
25313		-8.328538	13.823818	13.252804	-3.093134	-1.219812	-1.482768	0.960449	0.672852	0.837402
25314		-4.736290	9.055224	11.715938	-3.086062	-1.711374	-0.331404	0.994385	0.655029	0.855225
25315		-2.379122	6.500866	10.322648	-2.416595	-2.048537	0.783774	1.039551	0.635254	0.866699
25316		-4.300406	6.761836	8.812782	-1.596407	-2.570618	1.747218	1.087158	0.608643	0.865479
25317		-5.251262	9.010508	7.889268	-1.224287	-3.498649	2.370395	1.161621	0.579834	0.849854
25318		-4.237905	8.799018	7.244031	-1.229359	-4.416835	2.680724	1.245117	0.544678	0.817383
25319		-3.454425	6.627437	6.658805	-1.134826	-5.093294	2.903628	1.322266	0.507080	0.782715
25320		-3.773084	4.371208	6.219923	-0.764135	-5.592602	3.160311	1.417480	0.460938	0.722900
25321		-5.171204	3.396814	6.000951	-0.190747	-6.004121	3.448331	1.510498	0.412354	0.654785
25322		-7.580311	4.220818	6.430892	0.385437	-6.410744	3.648025	1.601563	0.359619	0.559326
25323		-10.919414	5.578120	6.935762	0.740888	-6.962507	3.764561	1.688232	0.300049	0.453125
25324		-11.211302	5.787807	7.554916	0.836058	-7.524935	3.836947	1.769043	0.225098	0.319824
25325		-9.918230	4.496122	8.183299	0.948894	-7.781754	3.954047	1.833984	0.152344	0.176025
25326		-9.764040	3.403856	8.831376	1.218721	-7.777552	4.138797	1.888672	0.059570	0.028076
25327		-10.876488	2.655241	9.804897	1.595406	-7.643827	4.350538	1.925537	-0.037598	-0.123779
25328		-13.499020	1.992504	11.258620	2.059483	-7.475618	4.568729	1.938477	-0.150391	-0.275391
25329		-17.498800	1.223533	11.781080	2.513780	-7.404149	4.878209	1.940918	-0.278809	-0.416016
25330		-22.424644	2.194663	11.528163	2.829829	-7.584579	5.203646	1.916748	-0.420410	-0.573242
25331		-26.711338	3.445743	10.518716	2.798249	-7.819330	5.514528	1.866455	-0.573242	-0.721924
25332		-28.575792	4.865442	9.042522	2.313882	-7.802926	5.692788	1.793701	-0.717041	-0.873291
25333		-32.327286	5.053376	5.511911	1.463238	-7.464122	5.629497	1.698242	-0.854492	-1.007813
25334		-36.584327	1.247448	-0.123794	0.680127	-6.796494	5.394946	1.586914	-0.978760	-1.129883
25335		-40.568053	-4.947804	-6.301719	0.339642	-5.761798	5.120961	1.472168	-1.076172	-1.225342
25336		-42.557965	-8.869120	-12.675555	0.319669	-4.601750	4.691219	1.370361	-1.156006	-1.295898
25337		-41.613114	-9.808964	-18.184662	0.222399	-3.404158	3.764053	1.292236	-1.213867	-1.341309
25338		-41.995934	-9.072817	-24.661275	-0.330525	-2.373803	2.411390	1.232666	-1.231689	-1.377197
25339		-36.343874	-13.135089	-28.188529	-0.800983	-1.329457	1.219135	1.208740	-1.244873	-1.398193
25340		-33.491762	-13.844964	-27.290813	-0.769404	-0.194096	0.692143	1.199707	-1.244873	-1.400391
25341		-31.745459	-9.524576	-23.988700	-0.632303	0.711386	0.541584	1.217529	-1.240479	-1.391846
25342		-33.200626	-11.142951	-27.454559	-0.820489	2.177401	0.034525	1.267822	-1.218262	-1.358154
25343		-36.560661	-2.130293	-30.493086	-1.302819	3.994526	-2.060326	1.376953	-1.158447	-1.291504
25344		-19.966916	-12.101921	1.116824	-0.004217	7.283872	-4.669145	1.536865	-1.085205	-1.152588
25345		-42.067456	25.581920	35.931226	0.295629	6.958004	-4.279098	1.647217	-0.994385	-1.031494
25346		-30.067539	23.018115	22.779341	-2.409445	5.463582	-3.661667	1.726318	-0.901367	-0.944580
25347		-18.230653	2.220642	14.864104	-2.367469	3.854580	-2.324995	1.754883	-0.821533	-0.904297
25348		-17.656677	-14.412248	4.696624	-1.456280	1.835195	-2.006561	1.766113	-0.761475	-0.876221
25349		-19.570473	-3.034257	1.450217	-1.068576	0.027128	-1.027369	1.760254	-0.715088	-0.864990
25350		-11.615976	0.287184	8.312398	-1.028943	-0.220559	-0.409986	1.743408	-0.681641	-0.857422
25351		2.356547	4.350561	10.989391	-0.957501	-0.295595	-0.138121	1.729248	-0.655029	-0.862549
25352		-11.598521	4.681835	7.158777	-0.983309	-0.317620	0.041818	1.712891	-0.630859	-0.854980
25353		-11.406879	5.390553	8.805682	-1.073078	-0.372563	-0.017629	1.691895	-0.599609	-0.853760
25354		-7.729626	5.702006	9.818969	-0.976385	-0.233709	-0.105101	1.686279	-0.570801	-0.852539
25355		-7.785100	1.930032	10.675589	-0.797946	-0.111786	-0.175983	1.667725	-0.548828	-0.836426
25356		-6.711814	1.054666	10.173542	-0.456322	0.236253	-0.274752	1.664551	-0.522217	-0.811768
25357		-8.792188	3.784996	10.196206	-0.186780	0.476909	-0.255757	1.659424	-0.500000	-0.782715
25358		-10.168268	3.112408	9.395217	-0.014185	0.726911	-0.248473	1.658691	-0.478027	-0.745117
25359		-8.462961	5.424109	10.144843	0.078369	1.149475	-0.296500	1.655762	-0.462646	-0.703125
25360		-8.875446	4.462412	12.698454	-0.096360	1.742824	-0.418958	1.655029	-0.440430	-0.644287
25361		-5.802357	5.201628	16.242127	-0.043824	2.728287	-0.669514	1.651367	-0.407471	-0.572998
25362		-3.818715	2.681637	16.489638	0.311441	3.837837	-0.854881	1.656738	-0.374512	-0.486816
25363		-3.042264	2.840886	15.808936	0.666422	4.807337	-1.002864	1.657959	-0.345947	-0.375244
25364		-3.088161	0.966749	13.990691	1.284196	5.903948	-1.249994	1.659180	-0.326172	-0.252686
25365		-3.628876	0.810104	13.004608	1.639470	6.919928	-1.371392	1.644531	-0.293213	-0.122070
25366		-2.223045	0.868292	10.521992	1.649742	7.598650	-1.299072	1.625244	-0.264893	0.027588
25367		-2.123777	2.038590	8.411965	1.806473	8.370520	-1.275116	1.594971	-0.229736	0.177246
25368		-6.672383	2.869976	8.485321	1.908611	9.030413	-1.293481	1.553467	-0.201416	0.316406
25369		-15.760007	5.977691	5.688997	1.939340	9.052965	-1.591687	1.491455	-0.155273	0.458984
25370		-23.401799	4.805613	0.937609	1.853820	8.383592	-1.690901	1.434570	-0.120117	0.570068
25371		-20.301185	4.769914	0.477122	1.793222	7.236843	-1.750818	1.364014	-0.080566	0.651367
25372		-17.499662	6.886328	2.605309	1.848121	6.140393	-1.694826	1.317871	-0.038574	0.715820
25373		-13.895118	6.673199	4.893073	1.308702	5.358664	-1.920845	1.267822	-0.007813	0.759277
25374		-15.126019	7.370745	6.433724	0.714326	4.441570	-2.128770	1.226807	0.020996	0.790039
25375		-8.921775	4.236387	8.738164	0.353613	4.124459	-2.364931	1.183350	0.051758	0.822754
25376		-10.498941	-3.322081	10.192715	1.160633	4.233138	-2.662511	1.150635	0.096191	0.851074
25377		-17.144049	-6.719363	13.368880	3.068979	3.431504	-2.992915	1.119385	0.164795	0.865967
25378		-19.717817	1.493193	15.057819	4.606210	2.465293	-3.243279	1.094727	0.242432	0.863525
25379		-17.292243	9.662364	16.312917	4.971950	1.331594	-3.711736	1.078369	0.331299	0.856445
25380		-15.321445	13.604134	16.509122	4.544349	0.522239	-4.399271	1.080322	0.408936	0.835205
25381		-13.427721	14.708835	15.863650	3.737818	0.065973	-4.834764	1.066650	0.491211	0.813721
25382		-13.311664	14.881925	15.051967	3.011904	-0.291596	-5.026832	1.054932	0.573242	0.794189
25383		-13.562433	15.494798	14.980777	2.360773	-0.515900	-4.952670	1.043945	0.642090	0.770996
25384		-13.870245	17.165515	14.972372	1.607160	-0.647093	-4.646248	1.035156	0.710938	0.758301
25385		-13.329468	19.919461	15.200906	0.579586	-0.783705	-4.204861	1.026855	0.755371	0.744141
25386		-12.435272	21.669998	14.690660	-0.812715	-0.971806	-3.594924	1.028076	0.786377	0.756104
25387		-9.592893	18.275983	13.060489	-2.052155	-1.213942	-2.725598	1.036133	0.812988	0.768066
25388		-7.473631	13.241856	11.222385	-2.567771	-1.411433	-1.453019	1.058350	0.815186	0.789307
25389		-5.457799	9.734587	9.614199	-2.330650	-1.516123	-0.051008	1.085449	0.804199	0.800293
25390		-5.452992	10.297583	8.579441	-1.918289	-1.759356	1.199408	1.135010	0.784180	0.807617
25391		-5.821614	11.855454	7.787258	-1.939996	-2.318919	2.068820	1.198242	0.755371	0.812988
25392		-6.158513	10.083101	7.121144	-2.143779	-3.065740	2.657690	1.269043	0.702393	0.802246
25393		-4.665889	6.578667	6.583898	-2.117647	-3.783544	3.159601	1.355225	0.658203	0.789063
25394		-3.644850	4.389672	6.333575	-1.727811	-4.350526	3.634174	1.441895	0.596191	0.746826
25395		-4.416656	3.698839	6.476318	-1.173686	-4.794635	3.986612	1.535645	0.527832	0.691895
25396		-7.930111	5.443908	6.907886	-0.818056	-5.396549	4.136396	1.624756	0.461426	0.622314
25397		-9.906932	6.158607	7.098551	-0.828199	-6.193845	4.056461	1.720703	0.393066	0.531250
25398		-9.356456	4.064832	7.304640	-0.693363	-6.832024	3.960485	1.801514	0.311279	0.421631
25399		-8.952170	1.951396	7.415571	-0.193511	-7.215263	4.047081	1.875732	0.231934	0.286377
25400		-8.570000	2.189641	7.732111	0.393095	-7.434686	4.185988	1.943604	0.141357	0.145020
25401		-8.672734	2.820779	8.700765	0.844420	-7.499564	4.178922	1.989502	0.044434	-0.009033
25402		-10.949285	2.539660	9.450321	1.308626	-7.489369	4.067849	2.026367	-0.052734	-0.167236
25403		-15.030770	1.859868	9.505403	1.950167	-7.511228	4.066614	2.041504	-0.161133	-0.319092
25404		-18.158677	2.984977	9.240140	2.557689	-7.648402	4.227194	2.036865	-0.284912	-0.479004
25405		-20.811791	5.228604	9.138862	2.855511	-7.724406	4.469763	2.010254	-0.413330	-0.638916
25406		-24.375881	8.697385	8.726254	2.678718	-7.667430	4.682537	1.968750	-0.561768	-0.802490
25407		-28.602191	10.885189	7.623914	1.954485	-7.484636	4.850838	1.886719	-0.698975	-0.956055
25408		-33.451689	9.002880	4.318511	1.083473	-7.097534	5.038497	1.788818	-0.822998	-1.097412
25409		-36.428969	3.274437	-0.597027	0.661722	-6.445596	5.280252	1.668213	-0.940674	-1.217773
25410		-37.450978	-4.398535	-5.940357	0.793394	-5.412477	5.604898	1.547607	-1.064697	-1.301758
25411		-38.934454	-7.305118	-10.955668	0.918632	-4.233045	5.646785	1.424316	-1.166992	-1.358887
25412		-38.090579	-7.889299	-15.711431	0.671901	-3.250849	4.648660	1.328857	-1.240234	-1.391357
25413		-38.578594	-12.018440	-20.902860	0.418090	-2.320095	3.119035	1.263428	-1.282471	-1.424316
25414		-35.249769	-13.245299	-23.774094	0.202212	-1.518863	1.533112	1.230713	-1.306885	-1.436523
25415		-33.376146	-13.677649	-24.435880	0.173564	-0.843942	0.341963	1.221924	-1.309082	-1.438721
25416		-31.441950	-12.452906	-23.361209	0.583647	-0.310281	-0.301768	1.233398	-1.315918	-1.419189
25417		-25.830510	-4.091547	-21.913987	-0.187907	0.913885	-0.997371	1.268066	-1.291260	-1.406982
25418		-24.737545	1.898486	-26.402022	-2.171220	2.549861	-1.709284	1.348389	-1.224609	-1.389404
25419		-19.453060	-33.948324	-32.452974	-2.042330	6.077175	-3.875710	1.519043	-1.146973	-1.271973
25420		-56.881982	2.320884	21.012913	0.809059	9.367338	-4.274662	1.672607	-1.080566	-1.118164
25421		-58.011461	34.116492	43.603025	-2.462094	5.702468	-3.911596	1.760254	-0.978516	-1.056885
25422		-9.458326	2.739012	15.893626	-2.319535	3.233804	-2.666465	1.808838	-0.896484	-1.012207
25423		-23.827336	-11.932688	9.625895	-1.842079	1.318937	-1.772019	1.815674	-0.834473	-0.982178
25424		-19.474313	-8.699268	2.978191	-0.790690	0.159543	-0.853847	1.814453	-0.803467	-0.968262
25425		-12.464095	-1.833467	7.701973	-0.753978	-0.219573	-0.227417	1.802246	-0.770020	-0.962891
25426		-0.770286	4.963569	12.454481	-0.806654	-0.207172	0.127187	1.788330	-0.750244	-0.950928
25427		-1.731008	6.825807	7.371826	-0.718598	-0.005531	0.267552	1.774170	-0.728027	-0.936768
25428		-11.739119	6.235790	6.877445	-0.820585	-0.140090	0.080845	1.759766	-0.701416	-0.928955
25429		-10.961919	6.456658	8.500468	-0.832424	-0.102121	-0.087859	1.743408	-0.672607	-0.917236
25430		-5.814386	3.010145	10.415802	-0.666904	0.070838	-0.129843	1.729004	-0.646240	-0.901123
25431		-8.868618	2.510829	9.099348	-0.479457	0.287750	-0.280776	1.719238	-0.617432	-0.889160
25432		-5.528044	3.663844	8.689877	-0.267667	0.447971	-0.352063	1.713867	-0.593018	-0.868652
25433		-9.700301	4.019762	9.452663	-0.101875	0.532658	-0.386552	1.708740	-0.570801	-0.839600
25434		-10.080738	5.610853	10.215168	-0.136592	0.831112	-0.549449	1.707764	-0.546631	-0.814941
25435		-6.545676	6.405635	12.005256	-0.303629	1.318779	-0.748270	1.704346	-0.511230	-0.775635
25436		-8.003969	6.591461	14.493815	-0.300402	2.050483	-0.996331	1.716064	-0.464600	-0.711182
25437		-5.404542	2.967507	14.614847	-0.287690	3.092270	-1.269020	1.728027	-0.431641	-0.642090
25438		-3.747093	3.392378	15.904383	-0.009716	4.094673	-1.358338	1.742188	-0.394043	-0.551758
25439		-5.577459	0.701721	13.801639	0.538481	5.098500	-1.524270	1.753906	-0.352295	-0.438232
25440		-3.154622	-0.473208	13.690205	1.061902	6.025807	-1.719808	1.763916	-0.323730	-0.305176
25441		-3.614087	-0.146320	12.501078	1.223599	6.766820	-1.669328	1.771240	-0.284180	-0.166260
25442		-3.457129	-1.884896	8.822799	1.379437	7.452850	-1.585146	1.751709	-0.246826	-0.018799
25443		-1.696084	0.706675	8.660557	1.626013	8.119161	-1.373527	1.732422	-0.209473	0.141357
25444		-10.969697	3.221298	7.019661	1.680484	8.698929	-1.266398	1.686523	-0.183350	0.305908
25445		-17.918963	5.876628	4.957816	1.654893	8.458112	-1.435727	1.635742	-0.135010	0.437988
25446		-24.249865	4.559801	2.203891	1.617902	7.539084	-1.481661	1.583008	-0.099854	0.551270
25447		-19.540205	6.121491	2.116751	1.744383	6.540067	-1.676151	1.523682	-0.058105	0.634766
25448		-15.493287	5.946685	1.909270	1.934762	5.485854	-1.581314	1.475342	-0.016113	0.705322
25449		-12.421101	6.287316	4.047582	1.677357	4.568621	-1.796693	1.422607	0.023438	0.750732
25450		-9.098226	5.827921	5.255236	1.213639	3.894111	-2.008636	1.378906	0.063232	0.787354
25451		-6.826472	0.320118	7.141466	1.207223	3.924091	-2.349496	1.330566	0.109863	0.822021
25452		-14.211164	-3.039858	10.286099	2.392642	3.507101	-2.650943	1.297363	0.171875	0.843262
25453		-16.266601	2.061783	14.315300	3.660649	2.728859	-3.153190	1.261719	0.240479	0.851807
25454		-17.250092	8.114720	15.960872	3.701795	1.908304	-3.564269	1.236816	0.320313	0.851318
25455		-17.630538	13.595505	16.977361	3.037894	0.994771	-4.429281	1.220947	0.402588	0.829834
25456		-15.709638	13.762764	17.498912	1.978239	0.188179	-5.264237	1.200684	0.478027	0.821045
25457		-12.973629	10.198470	16.905789	1.497349	-0.293905	-5.656200	1.180420	0.555664	0.795410
25458		-11.528416	9.409584	16.081674	1.589191	-0.514592	-5.611507	1.166504	0.635742	0.773926
25459		-10.167990	10.712713	15.551817	1.755257	-0.498300	-5.313018	1.148438	0.717773	0.750244
25460		-9.689720	14.158139	15.598169	1.607424	-0.319641	-4.921072	1.124023	0.784424	0.733154
25461		-9.513584	17.371363	15.668376	0.896529	-0.115939	-4.327996	1.108887	0.839844	0.731445
25462		-9.420883	18.964468	15.311226	-0.267666	-0.133176	-3.335205	1.098633	0.877686	0.736816
25463		-8.412584	16.668239	14.193204	-1.490529	-0.374587	-1.892516	1.107178	0.888672	0.753418
25464		-7.459276	13.012731	12.535691	-2.210566	-0.798607	-0.164455	1.129883	0.877441	0.775146
25465		-5.833661	9.554552	10.663799	-2.292783	-1.329535	1.405136	1.179688	0.848633	0.789063
25466		-5.081009	8.260710	9.268857	-2.117360	-1.889242	2.546487	1.243408	0.804443	0.792725
25467		-5.015382	7.926868	8.030441	-2.069159	-2.511083	3.169011	1.313965	0.757813	0.790283
25468		-4.954064	6.922618	7.138924	-2.095861	-3.208652	3.338202	1.385010	0.702637	0.764648
25469		-4.464869	4.341318	6.420563	-1.874105	-3.841196	3.312197	1.467041	0.647217	0.739014
25470		-4.435354	2.639129	6.532351	-1.300594	-4.360627	3.313966	1.549072	0.592041	0.683838
25471		-5.415846	2.271386	6.630358	-0.621734	-4.872459	3.387524	1.633301	0.539063	0.622070
25472		-6.916451	3.346326	7.062944	-0.026842	-5.411935	3.442892	1.715332	0.486328	0.541260
25473		-7.959832	4.125490	7.570430	0.356932	-5.946686	3.470878	1.800049	0.422363	0.439697
25474		-8.663496	3.871171	8.203780	0.657520	-6.377956	3.583583	1.871826	0.351807	0.325195
25475		-10.017265	3.818678	9.057641	0.970507	-6.699679	3.791182	1.934814	0.272217	0.200684
25476		-12.026417	3.946367	9.741418	1.238733	-7.009456	4.050943	2.000488	0.179443	0.057129
25477		-12.506121	3.667492	10.454187	1.452168	-7.271559	4.317126	2.028320	0.084473	-0.094971
25478		-13.393732	2.363535	11.185863	1.829125	-7.367852	4.556714	2.061523	-0.030273	-0.254883
25479		-16.312132	1.768841	11.270776	2.316763	-7.410309	4.823546	2.068359	-0.163086	-0.412354
25480		-19.457977	3.553236	11.209138	2.674928	-7.472238	4.993002	2.057861	-0.304688	-0.573730
25481		-22.183155	5.051941	11.413569	2.791410	-7.456996	5.074708	2.020996	-0.457520	-0.735107
25482		-26.987333	5.477728	10.721838	2.731907	-7.340049	5.223779	1.952637	-0.605957	-0.884033
25483		-29.790306	5.720086	8.913230	2.434695	-7.137650	5.387245	1.862061	-0.756592	-1.022461
25484		-32.024329	3.467598	5.227462	1.888111	-6.705648	5.489164	1.753418	-0.894043	-1.146484
25485		-34.759362	-2.110083	-0.125271	1.389038	-5.997244	5.542902	1.630859	-1.022705	-1.245117
25486		-36.614691	-5.934755	-5.623863	1.045375	-5.045139	5.392555	1.511719	-1.122559	-1.319336
25487		-36.040318	-8.844439	-10.266014	0.742216	-3.874913	4.776111	1.405762	-1.215820	-1.370361
25488		-38.898076	-7.636004	-17.247528	0.245771	-2.827808	3.809986	1.324951	-1.262451	-1.409668
25489		-38.273470	-5.142506	-24.063162	-0.713252	-2.079214	2.459046	1.272461	-1.282471	-1.449707
25490		-30.774631	-9.192245	-26.421163	-1.461893	-1.210617	1.210356	1.240723	-1.264648	-1.473877
25491		-32.137399	-15.136249	-27.771202	-1.005739	-0.339084	0.751845	1.227783	-1.277832	-1.486328
25492		-29.330233	-16.091070	-25.148319	0.471451	0.520357	0.816844	1.237305	-1.297852	-1.458008
25493		-21.174275	-3.985704	-17.073887	0.928637	1.630970	0.837228	1.264404	-1.315674	-1.416992
25494		-24.188957	-1.204871	-18.837959	-1.118537	3.146636	-0.123388	1.323486	-1.286865	-1.387695
25495		-24.552907	-1.206981	-20.350265	-2.327781	4.756563	-1.767550	1.436768	-1.211426	-1.321533
25496		-7.791105	-13.874368	-2.198380	-0.641231	7.622771	-4.872667	1.618652	-1.135986	-1.174072
25497		-66.533537	26.237380	35.073925	-1.139443	7.667096	-5.535466	1.752441	-1.005127	-1.077393
25498		-42.569148	6.953780	18.519554	-3.939227	3.534488	-3.752013	1.799805	-0.891846	-1.054932
25499		-9.480941	8.876453	17.224694	-2.788329	1.056256	-2.605442	1.826172	-0.812012	-1.042236
25500		-21.621853	-16.530146	6.226920	-1.369506	-0.016096	-1.148039	1.820313	-0.774414	-1.030518
25501		-16.786195	-11.750746	8.653290	-1.014618	-0.410848	-0.207392	1.803711	-0.741211	-1.029541
25502		-4.885129	0.523790	12.688025	-0.973351	-0.226435	0.241188	1.793945	-0.718994	-1.006836
25503		1.822701	5.304596	10.932720	-0.759289	0.056392	0.353384	1.780029	-0.698975	-0.988525
25504		-9.632170	4.016749	6.121088	-0.635913	0.144856	0.281194	1.766113	-0.681396	-0.978516
25505		-10.396298	8.596936	7.272963	-0.743865	0.041889	0.047895	1.749268	-0.650391	-0.962402
25506		-8.236409	6.067933	8.449852	-0.657493	0.085174	-0.093821	1.737549	-0.628174	-0.950439
25507		-7.362521	3.108685	10.474701	-0.499624	0.213574	-0.173359	1.727783	-0.603760	-0.934082
25508		-6.597311	4.699670	9.621407	-0.376036	0.365308	-0.337262	1.711182	-0.577393	-0.920166
25509		-6.061481	2.416648	9.701989	-0.213879	0.529482	-0.358241	1.710205	-0.548584	-0.886963
25510		-12.579238	1.602914	9.345179	-0.096300	0.694999	-0.313951	1.702637	-0.524170	-0.864502
25511		-7.613252	5.515274	11.008521	-0.087529	1.095295	-0.335724	1.706543	-0.506592	-0.818359
25512		-7.534235	5.707181	14.195228	-0.429273	1.898867	-0.594110	1.707764	-0.479980	-0.765869
25513		-6.995298	4.868572	15.569653	-0.095044	2.852136	-0.887340	1.717773	-0.449219	-0.694580
25514		-3.239377	3.249722	16.307554	0.107338	3.874130	-1.200568	1.734131	-0.413818	-0.606445
25515		-2.413238	1.863758	16.076773	0.698008	4.906611	-1.540508	1.759277	-0.372070	-0.492920
25516		-4.914791	0.064890	13.512757	1.142944	5.842326	-1.767022	1.766602	-0.336914	-0.375000
25517		-4.711585	-0.356754	12.025190	1.347116	6.628976	-1.729052	1.773926	-0.294922	-0.227539
25518		-2.184403	-0.376853	9.782067	1.399360	7.206017	-1.606978	1.761230	-0.257813	-0.082275
25519		-2.101479	1.607197	7.551155	1.610141	7.921139	-1.516754	1.748779	-0.233643	0.076416
25520		-4.042202	3.406382	6.255744	1.634254	8.546937	-1.522968	1.713623	-0.185303	0.233887
25521		-17.324603	4.172375	4.544789	1.591005	8.447788	-1.432784	1.667480	-0.150391	0.379150
25522		-21.064392	6.034602	1.482715	1.495985	7.689736	-1.840928	1.616699	-0.106445	0.500732
25523		-23.434800	9.047017	-1.805291	1.351277	6.180018	-2.002135	1.554932	-0.060059	0.583984
25524		-16.545187	7.246451	-0.460821	0.946963	4.932601	-2.203123	1.508789	-0.013672	0.637451
25525		-10.682995	6.320947	2.134388	0.957008	4.162044	-2.228064	1.464844	0.032715	0.684814
25526		-8.769375	3.942063	4.946275	1.096090	3.818984	-2.172281	1.412354	0.072510	0.721436
25527		-7.005028	4.291810	6.706597	1.183661	3.834808	-2.285355	1.368164	0.121094	0.758057
25528		-9.280596	1.389659	8.659303	1.279984	4.014329	-2.473076	1.320068	0.163086	0.792725
25529		-12.569183	-1.271586	12.053580	2.074210	3.867347	-2.670813	1.278076	0.218506	0.818359
25530		-16.010533	0.096555	15.582832	3.046544	3.264822	-2.927958	1.238281	0.278320	0.831299
25531		-15.216603	4.852317	16.751955	3.455918	2.608591	-3.167060	1.202637	0.346924	0.835449
25532		-14.253000	7.284493	17.271745	3.477140	2.026935	-3.486849	1.180420	0.413574	0.842041
25533		-12.774457	9.685051	17.504533	3.149360	1.620111	-3.695731	1.153564	0.486816	0.829102
25534		-13.456538	11.360172	17.310432	2.603137	1.308459	-3.795013	1.129395	0.544434	0.825195
25535		-14.088978	13.512663	17.428781	1.947887	0.964560	-3.721930	1.111816	0.608887	0.825195
25536		-13.977393	15.808450	17.768816	1.087162	0.639033	-3.530885	1.092529	0.653076	0.819580
25537		-14.482855	16.959191	17.717786	0.051058	0.305208	-3.178253	1.086670	0.690918	0.826904
25538		-13.611004	14.901650	16.488668	-0.914443	-0.182094	-2.590382	1.085938	0.713135	0.839111
25539		-11.190278	11.806284	14.704849	-1.362728	-0.674068	-1.734848	1.099121	0.719727	0.845459
25540		-9.237960	9.904002	12.894985	-1.374989	-1.105041	-0.869326	1.121338	0.721924	0.843262
25541		-7.418611	8.750299	11.370769	-1.165111	-1.532309	-0.108451	1.150391	0.721924	0.839111
25542		-6.397792	8.678998	10.216626	-1.021140	-2.000296	0.547196	1.195068	0.710938	0.841797
25543		-5.523120	8.667596	9.120252	-1.042842	-2.569061	1.036028	1.253662	0.697754	0.823486
25544		-4.991902	6.828117	8.156848	-0.984264	-3.152539	1.455191	1.312256	0.675781	0.805420
25545		-4.839825	4.875372	7.307879	-0.689770	-3.748728	1.964328	1.386719	0.649414	0.764160
25546		-5.019303	4.630482	6.991324	-0.246663	-4.301133	2.462949	1.463135	0.625244	0.718506
25547		-6.272337	5.341567	7.181086	0.122292	-4.834343	2.874146	1.542969	0.576660	0.650146
25548		-8.288014	5.541382	7.107308	0.319507	-5.410676	3.186952	1.633545	0.532715	0.573486
25549		-8.750373	5.395386	6.747312	0.401223	-5.960321	3.460647	1.715820	0.477539	0.479980
25550		-7.892822	4.958051	6.604032	0.507067	-6.263804	3.703440	1.798340	0.409180	0.374268
25551		-7.752334	4.728930	6.813104	0.671335	-6.306782	3.939920	1.865967	0.329590	0.255859
25552		-8.865022	4.895882	7.384275	0.823928	-6.262795	4.177803	1.922363	0.248047	0.139648
25553		-10.420328	5.020527	8.003794	0.942697	-6.258040	4.392830	1.968018	0.150635	0.015381
25554		-11.846459	4.540607	8.686762	1.079539	-6.324516	4.585016	2.014160	0.046875	-0.117188
25555		-13.135841	3.015221	9.781401	1.344850	-6.435906	4.838930	2.031738	-0.077148	-0.249512
25556		-14.897269	2.391533	10.766133	1.716249	-6.553505	5.132921	2.038818	-0.209717	-0.394043
25557		-17.897155	2.458126	10.747200	2.052884	-6.669949	5.408457	2.030518	-0.355957	-0.532227
25558		-20.656083	3.695984	10.153705	2.033661	-6.816140	5.568538	1.991211	-0.506592	-0.678711
25559		-22.268660	3.412413	9.360840	1.625739	-6.826099	5.581531	1.933838	-0.652588	-0.819092
25560		-25.554438	2.069604	6.843651	1.108367	-6.686955	5.480234	1.849609	-0.790039	-0.955811
25561		-30.250562	0.022705	3.242489	0.672788	-6.421712	5.245296	1.749268	-0.909668	-1.088623
25562		-34.862649	-3.715949	-1.081593	0.460549	-5.951323	4.920335	1.636963	-1.011719	-1.194580
25563		-37.984384	-7.147801	-6.576658	0.539344	-5.253711	4.474155	1.528809	-1.104736	-1.281494
25564		-38.042537	-7.691084	-12.728462	0.715365	-4.414867	3.703739	1.435547	-1.175781	-1.350098
25565		-37.627686	-7.998964	-19.150157	0.575495	-3.373529	2.684858	1.368164	-1.222412	-1.380859
25566		-37.638191	-9.358303	-24.080066	0.246085	-2.409659	1.741443	1.315918	-1.253418	-1.418457
25567		-34.311737	-11.399053	-25.344779	-0.004596	-1.412681	1.321153	1.285156	-1.266846	-1.428955
25568		-30.561271	-10.200004	-23.735595	-0.357246	-0.309792	1.277615	1.267822	-1.280273	-1.432861
25569		-26.291909	-7.116525	-20.767828	-0.777984	0.923870	1.300133	1.276855	-1.282471	-1.419922
25570		-26.326432	-7.556067	-21.998702	-1.530487	2.604445	0.840663	1.316162	-1.266846	-1.388428
25571		-26.813160	-2.450343	-25.543271	-1.947113	4.196780	-0.165624	1.403564	-1.215820	-1.340576
25572		-18.064132	-16.868954	-19.799450	-1.401377	6.914133	-3.905518	1.572266	-1.140381	-1.208252
25573		-57.949719	8.472946	28.981660	0.303359	7.777950	-4.913414	1.711426	-1.049561	-1.084717
25574		-38.197442	27.660849	30.550369	-2.424203	5.136517	-3.864260	1.783691	-0.949951	-1.006592
25575		-5.246968	9.329764	13.668499	-2.471371	2.976575	-2.813866	1.827148	-0.852295	-0.977295
25576		-34.080315	-15.452133	5.187701	-2.175787	0.088786	-2.496809	1.834229	-0.790039	-0.970703
25577		-18.365329	-9.199614	3.759500	-1.315894	-0.085662	-0.815266	1.819336	-0.747803	-0.969727
25578		-9.607892	-2.750733	12.789734	-1.091911	-0.364284	-0.186721	1.807129	-0.712402	-0.958252
25579		-0.761956	3.582503	13.813374	-0.893240	-0.177425	0.139376	1.792969	-0.690186	-0.946289
25580		-4.560086	7.114535	8.918164	-0.837178	0.001256	0.245681	1.769775	-0.666016	-0.936279
25581		-10.316544	5.367881	6.590478	-0.837254	0.018327	0.015480	1.758057	-0.643799	-0.926514
25582		-7.816898	4.856266	7.097739	-0.789001	-0.007633	-0.000030	1.743652	-0.614990	-0.914551
25583		-8.851580	3.501558	8.970165	-0.658339	0.050161	-0.054989	1.731689	-0.588379	-0.900635
25584		-8.535288	4.836796	10.119398	-0.576248	0.149515	-0.215655	1.717529	-0.568604	-0.886475
25585		-5.495181	4.802990	9.672302	-0.374173	0.361448	-0.254690	1.707764	-0.541992	-0.868164
25586		-11.157205	2.567611	9.216118	-0.282397	0.503105	-0.254187	1.702637	-0.526367	-0.843262
25587		-8.822560	3.454124	10.219804	-0.221324	0.632957	-0.166990	1.695068	-0.502197	-0.810059
25588		-7.448515	6.145207	12.863069	-0.329795	1.140322	-0.241595	1.696533	-0.477783	-0.774658
25589		-9.069525	2.152793	15.032269	-0.623863	2.058151	-0.605104	1.699951	-0.447021	-0.713867
25590		-3.468778	3.917840	17.694970	0.046936	3.343836	-0.885789	1.714355	-0.422607	-0.633789
25591		-2.993354	3.769223	17.804508	0.477151	4.448515	-1.225628	1.730957	-0.387451	-0.526367
25592		-3.074823	1.719513	15.868794	0.967373	5.466750	-1.576894	1.742676	-0.350098	-0.404297
25593		-3.318504	0.488865	14.637954	1.313503	6.583181	-1.721310	1.740967	-0.308350	-0.273926
25594		-1.673632	-0.158515	11.448348	1.385048	7.487734	-1.694750	1.741699	-0.273193	-0.120117
25595		-1.997864	1.303315	8.890473	1.517445	8.326525	-1.633772	1.724609	-0.240479	0.046631
25596		-7.585177	4.010268	7.666466	1.556515	8.858494	-1.612546	1.696289	-0.200928	0.204590
25597		-21.160275	4.065332	4.543623	1.820922	8.563138	-1.558607	1.656494	-0.154785	0.347412
25598		-25.433644	4.673083	2.621531	1.644369	7.473369	-1.544246	1.606201	-0.119629	0.462891
25599		-20.363184	6.141524	0.868636	1.543091	5.964422	-1.698300	1.553711	-0.084473	0.535889
25600		-13.693035	8.364881	0.890487	1.402081	4.538217	-1.728690	1.509766	-0.042480	0.583252
25601		-6.201989	6.481451	1.882012	0.855900	3.899616	-2.249841	1.468262	0.003906	0.621826
25602		-4.568836	0.643944	3.749210	0.471771	3.696541	-2.580933	1.426514	0.045898	0.658691
25603		-6.705243	-0.055111	7.012832	0.620082	3.752538	-2.675259	1.385010	0.087891	0.695557
25604		-11.120776	-0.627914	11.835660	1.095805	3.292716	-2.819799	1.350098	0.132324	0.721680
25605		-12.679982	1.479544	15.882049	1.508231	2.765000	-3.093526	1.310303	0.194336	0.738770
25606		-12.802108	3.097582	16.973780	1.591912	2.343487	-3.300472	1.286377	0.245361	0.747559
25607		-11.302511	2.415682	17.509360	1.666820	2.052500	-3.572092	1.264404	0.300781	0.758789
25608		-10.280832	2.403767	17.569012	1.805093	1.954923	-3.759104	1.235596	0.362793	0.760986
25609		-10.334209	4.503358	17.873054	1.920138	1.905865	-4.005374	1.204346	0.433838	0.769287
25610		-10.910317	6.321369	17.742621	1.939496	1.818031	-4.204504	1.179932	0.502441	0.777832
25611		-13.042263	8.345487	17.499130	1.846427	1.599117	-4.253362	1.155518	0.569092	0.775635
25612		-16.402518	10.654503	17.391882	1.667201	1.142728	-4.086788	1.129150	0.626709	0.776123
25613		-16.539426	14.333901	17.621231	1.219593	0.524959	-3.809382	1.124756	0.691162	0.776367
25614		-15.222809	18.134361	17.582558	0.294801	0.035801	-3.374058	1.110107	0.728760	0.775146
25615		-12.885419	18.855526	16.268157	-0.964372	-0.367241	-2.734186	1.113770	0.753174	0.789307
25616		-9.874360	16.402849	14.450124	-1.957072	-0.632891	-1.851576	1.122314	0.761963	0.797607
25617		-8.216599	13.443782	12.345244	-2.338645	-0.819523	-0.796459	1.148926	0.761963	0.818848
25618		-7.080492	11.256647	10.598415	-2.221757	-1.126316	0.281379	1.180664	0.744385	0.825928
25619		-6.192945	10.225073	9.272395	-1.913510	-1.529038	1.234221	1.232666	0.722168	0.845947
25620		-5.833220	10.214856	8.251290	-1.626674	-2.080324	1.920007	1.280518	0.688965	0.836670
25621		-5.906993	9.477476	7.367231	-1.411018	-2.731422	2.346010	1.350586	0.657959	0.825195
25622		-6.009428	8.101100	6.563355	-1.091186	-3.460200	2.631949	1.427734	0.618164	0.794922
25623		-5.938737	6.821908	6.031980	-0.611400	-4.147538	2.875527	1.507324	0.569580	0.748047
25624		-6.317592	6.149604	5.870390	-0.033538	-4.741761	3.071025	1.582520	0.523438	0.686035
25625		-7.728131	6.311482	5.820006	0.539744	-5.325813	3.207344	1.670898	0.477051	0.603027
25626		-9.281749	6.012914	5.632594	1.020523	-5.943613	3.362628	1.755371	0.422119	0.503174
25627		-9.857673	5.752751	5.782369	1.494854	-6.470092	3.560493	1.840088	0.360352	0.390625
25628		-9.852497	5.918793	6.342755	1.870516	-6.821125	3.824889	1.903076	0.285400	0.253174
25629		-10.307912	6.327105	6.972438	2.073167	-7.016498	4.098740	1.961914	0.194824	0.111816
25630		-10.760677	6.146746	7.494330	2.148471	-7.127261	4.357299	2.012207	0.095459	-0.033691
25631		-11.627898	4.478602	8.447293	2.320116	-7.141450	4.592733	2.038574	-0.017334	-0.185303
25632		-13.949742	2.939397	9.258223	2.700912	-7.101076	4.924444	2.052246	-0.150146	-0.327881
25633		-16.508207	2.995717	9.850416	3.073257	-7.068132	5.277491	2.044189	-0.302734	-0.480469
25634		-19.214320	3.685969	10.089463	3.187614	-6.990317	5.595915	2.014160	-0.462158	-0.620361
25635		-22.417281	4.292342	10.263806	2.891091	-6.819867	5.847444	1.961914	-0.626221	-0.751709
25636		-26.784460	3.998303	9.818634	2.261427	-6.611957	6.036291	1.876221	-0.788086	-0.885498
25637		-32.462760	1.454875	7.411597	1.517373	-6.368144	6.199746	1.772217	-0.936523	-1.009277
25638		-38.009047	-2.386499	2.657294	0.879192	-5.999241	6.262050	1.649902	-1.069580	-1.116455
25639		-42.381979	-6.062351	-4.660807	0.295044	-5.431927	6.028776	1.517822	-1.176025	-1.205322
25640		-40.573587	-7.039940	-12.501717	-0.204023	-4.596586	5.045839	1.411377	-1.253662	-1.280029
25641		-38.777044	-11.503406	-19.200509	-0.253429	-3.398352	3.614018	1.319336	-1.300293	-1.334473
25642		-40.018541	-13.440968	-24.775485	0.002110	-2.413779	2.322867	1.262695	-1.331543	-1.359131
25643		-37.091171	-16.918797	-27.212766	0.504836	-1.519171	1.587313	1.225830	-1.366943	-1.358398
25644		-30.546055	-11.034203	-25.020822	0.591780	-0.301294	1.214193	1.212891	-1.378174	-1.347656
25645		-31.260009	-8.622260	-25.877243	-0.834455	1.287147	0.467613	1.237061	-1.366943	-1.345703
25646		-39.984633	-0.628948	-31.366934	-2.514741	2.809806	-0.853525	1.308594	-1.307129	-1.332031
25647		-30.145491	-35.195210	-33.322750	-2.529003	5.524387	-4.223993	1.476807	-1.220459	-1.229736
25648		-51.547049	-0.996607	23.549974	0.648131	7.672674	-5.053446	1.618652	-1.138428	-1.108154
25649		-37.938360	34.416719	39.174056	-2.348020	5.512322	-4.478806	1.717041	-1.020996	-1.032471
25650		-0.093027	9.237296	17.762140	-2.868180	4.593728	-3.237276	1.785156	-0.925537	-0.975342
25651		-29.846442	-13.909808	11.820936	-2.465476	1.872977	-2.464486	1.809082	-0.845703	-0.949951
25652		-21.916023	-5.086415	-0.586034	-1.046439	0.325264	-1.446819	1.801025	-0.803467	-0.938477
25653		-15.395644	-3.815471	9.091241	-0.919123	-0.098673	-0.414411	1.797607	-0.765869	-0.927002
25654		-1.420921	2.824630	12.213905	-0.872277	-0.077405	-0.151603	1.778809	-0.737061	-0.915283
25655		-3.237295	6.110003	7.398357	-0.800419	-0.029589	-0.000014	1.766846	-0.710449	-0.905273
25656		-12.422076	5.661818	6.172814	-0.974648	-0.220690	0.012734	1.750000	-0.677246	-0.904297
25657		-8.282279	7.479368	7.039987	-1.126233	-0.321841	-0.107987	1.733643	-0.650635	-0.898926
25658		-6.456380	4.165339	8.101744	-1.058833	-0.245247	-0.164279	1.712402	-0.610596	-0.895752
25659		-9.453227	2.192594	9.908479	-0.935467	-0.201338	-0.177424	1.704834	-0.586182	-0.890137
25660		-6.001281	3.597978	10.070309	-0.731956	0.067843	-0.273617	1.688477	-0.562012	-0.878418
25661		-10.482541	2.494650	9.941619	-0.517797	0.226335	-0.289823	1.680664	-0.533203	-0.860107
25662		-10.219109	2.161578	10.445431	-0.320072	0.424168	-0.240225	1.673340	-0.513184	-0.835205
25663		-8.175414	3.938343	11.791938	-0.248006	0.873004	-0.293271	1.676758	-0.486572	-0.802002
25664		-8.187067	3.848877	15.094122	-0.501537	1.637529	-0.464861	1.680176	-0.455811	-0.756104
25665		-5.369029	1.972431	16.825779	-0.135515	2.866971	-0.772628	1.692383	-0.424805	-0.678467
25666		-3.190854	2.140835	19.188027	0.427243	4.087206	-1.104014	1.715576	-0.391846	-0.585938
25667		-3.772663	1.495377	17.051023	1.034840	5.166368	-1.403558	1.718750	-0.365479	-0.463623
25668		-2.992690	-1.029609	14.556617	1.427756	6.137811	-1.478896	1.732910	-0.325928	-0.326660
25669		-2.728224	1.238815	13.526692	1.673964	7.162658	-1.386767	1.736084	-0.299561	-0.182861
25670		0.019196	3.969291	9.496440	1.726807	8.049582	-1.412677	1.723389	-0.266846	-0.022705
25671		-1.190376	5.422115	8.177214	1.783355	8.942109	-1.482771	1.703857	-0.225098	0.145752
25672		-12.732934	4.029607	6.734666	2.106476	9.431776	-1.659862	1.662354	-0.192383	0.312500
25673		-19.271629	4.147472	2.280412	2.197300	8.827055	-1.779697	1.602539	-0.141846	0.450684
25674		-26.893314	2.581803	-3.665876	2.139440	7.131185	-1.520092	1.554199	-0.099854	0.549072
25675		-20.336048	7.165730	-2.382324	1.696635	5.220748	-1.571615	1.506104	-0.062500	0.604980
25676		-10.934160	9.431478	0.989339	0.756355	3.979339	-1.935904	1.462402	-0.027100	0.650391
25677		-6.617929	5.764522	5.977580	-0.168446	3.619186	-2.265220	1.423340	0.010498	0.685303
25678		-3.274975	0.719957	7.960897	-0.293564	3.949154	-2.379748	1.377686	0.041260	0.720215
25679		-5.761093	-1.450279	10.198252	0.356877	4.522012	-2.227826	1.322754	0.078857	0.771729
25680		-13.074377	-1.506529	12.981099	1.435863	4.341066	-2.238886	1.283447	0.120850	0.810791
25681		-14.584628	1.238830	15.507458	2.442586	3.767715	-2.422641	1.241699	0.169434	0.840820
25682		-16.086855	4.958888	16.958603	2.800986	3.057851	-2.720194	1.206055	0.236084	0.860107
25683		-14.536480	7.123498	17.470129	2.814799	2.390651	-3.211811	1.186523	0.291504	0.868896
25684		-12.354380	8.035881	17.471419	2.687715	1.995948	-3.657159	1.157471	0.360107	0.871094
25685		-13.208689	9.229467	17.069901	2.642629	1.708790	-3.950165	1.133057	0.426758	0.877441
25686		-14.829920	11.064235	16.473819	2.555668	1.257591	-4.075177	1.119629	0.500000	0.864502
25687		-16.501816	14.330556	15.991055	2.282663	0.670044	-4.102387	1.106445	0.564209	0.862549
25688		-16.522644	16.761553	15.809614	1.707378	0.092052	-4.120017	1.088623	0.628662	0.856445
25689		-15.106960	18.259587	16.027153	0.829395	-0.407984	-3.927810	1.082520	0.679688	0.854980
25690		-12.809949	18.681611	15.548954	-0.255237	-0.773386	-3.482142	1.092529	0.712891	0.860352
25691		-9.725610	17.534830	14.062158	-1.271287	-0.983015	-2.793748	1.093994	0.741943	0.859619
25692		-8.420851	15.292056	12.401157	-1.925347	-1.162486	-1.864597	1.111572	0.746338	0.870117
25693		-7.930816	12.163952	11.161968	-2.001293	-1.487950	-0.749603	1.147461	0.739746	0.883301
25694		-8.273759	10.374374	9.965102	-1.720841	-2.074455	0.529818	1.201172	0.728760	0.875488
25695		-8.514632	10.684288	8.769513	-1.498181	-2.972385	1.669732	1.269043	0.695557	0.861816
25696		-5.796959	9.242092	7.904063	-1.368431	-3.835443	2.522273	1.343994	0.657959	0.833740
25697		-4.514545	7.377462	7.162191	-1.149439	-4.434680	3.151048	1.434570	0.611572	0.792969
25698		-4.025298	6.057102	6.762920	-0.830820	-4.870367	3.585032	1.525879	0.549805	0.738037
25699		-5.336692	4.832222	6.911658	-0.396428	-5.226775	3.865345	1.619141	0.492432	0.663818
25700		-7.808839	4.672825	7.307941	0.053157	-5.695244	4.054775	1.706299	0.421875	0.577148
25701		-9.522595	4.985546	7.725810	0.410273	-6.257411	4.154833	1.795898	0.342285	0.469482
25702		-10.256500	4.646015	8.092269	0.696343	-6.759997	4.229832	1.865723	0.260742	0.346924
25703		-9.844649	3.666552	9.063091	1.008588	-7.103765	4.336644	1.935791	0.167969	0.212158
25704		-10.254528	2.598998	9.998689	1.398786	-7.296931	4.485989	1.994873	0.072998	0.066650
25705		-12.146135	1.460100	10.327979	1.882595	-7.482407	4.666859	2.028320	-0.046387	-0.095215
25706		-14.784780	0.184378	10.010154	2.409683	-7.665665	4.901781	2.043701	-0.170166	-0.252930
25707		-15.759522	0.718729	9.952702	2.868793	-7.728505	5.114814	2.044189	-0.309570	-0.412354
25708		-18.809186	1.593844	10.102371	2.992560	-7.639231	5.329655	2.020752	-0.464600	-0.569336
25709		-23.483452	3.011531	9.980694	2.795728	-7.438493	5.560472	1.972656	-0.615234	-0.716064
25710		-28.776179	4.806518	9.505076	2.234892	-7.236484	5.774931	1.886963	-0.779297	-0.855957
25711		-33.345678	5.511609	8.084139	1.445203	-6.927440	5.911251	1.789307	-0.918701	-0.994629
25712		-39.059085	2.676226	4.544317	0.781078	-6.454587	6.000941	1.660400	-1.051758	-1.108398
25713		-42.886636	-3.168161	-2.231541	0.521204	-5.748328	6.103249	1.533203	-1.171631	-1.207520
25714		-41.563912	-5.203036	-9.986918	0.390239	-4.705396	5.884657	1.402588	-1.262695	-1.281982
25715		-39.461366	-7.403645	-17.644753	0.067867	-3.170498	5.029855	1.309570	-1.338135	-1.320557
25716		-39.046844	-6.100167	-24.941242	-0.502009	-1.664000	3.611361	1.239502	-1.375977	-1.351807
25717		-36.676139	-8.420287	-28.847469	-1.193350	-0.505546	2.155456	1.215332	-1.380371	-1.377197
25718		-34.734373	-12.809924	-29.860480	-1.511576	0.213847	1.293093	1.204102	-1.378174	-1.383789
25719		-33.878165	-14.565273	-29.978216	-0.767060	0.717691	0.768928	1.204102	-1.375977	-1.375244
25720		-26.474588	-13.040508	-23.859950	0.173266	1.452359	0.346120	1.230957	-1.384766	-1.334473
25721		-24.199695	-7.950972	-16.981001	0.367957	2.346545	0.055293	1.266602	-1.387207	-1.293945
25722		-21.610722	-0.422285	-11.417413	-0.464063	3.356547	-0.589704	1.334717	-1.367188	-1.249512
25723		-13.808951	-2.418633	-5.142230	-0.785020	4.681863	-1.604889	1.437744	-1.320557	-1.176025
25724		1.839471	13.562778	-5.850821	-1.564613	5.925744	-3.258195	1.566162	-1.238525	-1.086426
25725		-37.230422	34.763333	21.989914	-0.832476	6.421457	-6.659695	1.706299	-1.103027	-0.994141
25726		-51.582367	9.809087	11.987447	-3.719628	4.417434	-4.281747	1.767334	-0.998779	-0.952148
25727		-24.672954	-4.872847	17.610938	-3.170440	1.775426	-2.768514	1.804199	-0.901123	-0.929443
25728		-7.337352	-6.362513	12.738096	-2.038993	0.158491	-2.184994	1.810791	-0.827881	-0.929443
25729		-22.577635	-13.089513	2.952539	-1.254130	-0.380696	-0.856856	1.798584	-0.796875	-0.923828
25730		-12.775306	-3.410906	10.364883	-1.280415	-0.777923	-0.254513	1.777344	-0.759277	-0.931396
25731		-0.559424	3.400443	15.699404	-1.073141	-0.399850	0.040008	1.758545	-0.732666	-0.917480
25732		-3.873787	4.030179	9.454752	-0.819671	0.017903	0.170426	1.742188	-0.706055	-0.912109
25733		-11.519644	4.676238	7.116856	-0.726037	-0.036382	0.120746	1.728027	-0.683838	-0.893555
25734		-9.964013	5.183989	7.955091	-0.676672	0.004851	0.032715	1.711670	-0.657227	-0.888184
25735		-8.542422	3.871251	8.343422	-0.545216	0.100107	-0.056436	1.701904	-0.635254	-0.869629
25736		-8.246987	3.044047	10.789963	-0.405140	0.221802	-0.156114	1.694580	-0.613037	-0.861816
25737		-4.994401	4.777235	9.261801	-0.276627	0.481132	-0.232888	1.687012	-0.588623	-0.837158
25738		-9.273733	2.902620	10.437961	-0.180904	0.631328	-0.147911	1.679443	-0.568848	-0.812256
25739		-11.088033	5.831071	9.935791	-0.220482	0.949126	-0.207259	1.676514	-0.546631	-0.768311
25740		-5.821710	6.616661	13.315214	-0.535912	1.666591	-0.392338	1.686523	-0.515625	-0.724609
25741		-9.055042	4.865636	16.266653	-0.366586	2.574182	-0.746640	1.696533	-0.484863	-0.651123
25742		-6.265402	3.734898	15.920766	-0.122761	3.564177	-1.049699	1.701904	-0.451660	-0.571533
25743		-0.147915	2.854470	16.503550	0.571923	4.557333	-1.413752	1.718262	-0.412109	-0.474854
25744		-3.368641	0.664650	15.343752	1.208595	5.600185	-1.809783	1.734375	-0.370117	-0.350830
25745		-5.947310	0.588563	13.432800	1.417253	6.657597	-1.909018	1.737061	-0.330566	-0.201172
25746		-0.603685	1.260837	11.824038	1.469138	7.465520	-1.915470	1.730957	-0.286621	-0.058105
25747		-1.530062	1.463865	8.574026	1.633403	8.524508	-2.004702	1.711426	-0.247314	0.110352
25748		-6.926191	2.867268	8.184600	1.768333	9.279535	-1.842216	1.676025	-0.196777	0.280762
25749		-18.955892	2.954430	3.787599	2.138721	9.076560	-1.753976	1.620850	-0.155029	0.434326
25750		-24.631256	1.004372	0.488957	2.324999	7.965490	-1.575512	1.570313	-0.115479	0.545410
25751		-22.522556	4.709231	-1.366548	2.772539	6.405302	-1.282920	1.508545	-0.073730	0.624512
25752		-16.011074	6.799238	0.738099	2.387731	4.907776	-1.298784	1.458008	-0.029541	0.682373
25753		-10.834899	3.270077	3.590357	1.574654	3.905399	-1.416192	1.416992	-0.000732	0.717285
25754		-5.094688	-0.373031	4.189504	1.077178	3.570618	-1.380392	1.371582	0.021240	0.756836
25755		-5.083939	-0.285645	6.372174	0.905877	3.825875	-1.313170	1.332764	0.045410	0.781250
25756		-11.003725	-1.238217	10.972572	1.406147	3.609453	-1.324563	1.289307	0.083008	0.813965
25757		-14.668584	2.286129	14.304802	1.592840	3.062500	-1.480118	1.261475	0.111816	0.838379
25758		-12.781276	2.650445	15.748800	1.611632	2.556276	-1.777402	1.231201	0.149414	0.852051
25759		-11.318755	2.346619	16.511918	1.741883	2.350864	-2.175845	1.207520	0.193848	0.865479
25760		-11.399281	2.800302	16.929931	1.993761	2.209844	-2.506876	1.183838	0.235840	0.876953
25761		-12.240171	5.045770	17.207930	2.232701	2.004546	-2.879890	1.164063	0.295654	0.885742
25762		-13.651969	7.456908	17.321728	2.311084	1.633007	-3.226033	1.144287	0.357910	0.887939
25763		-15.315502	9.231203	16.871621	2.245714	1.047892	-3.457390	1.131348	0.411133	0.886475
25764		-14.951435	11.982173	16.662550	1.979940	0.448737	-3.614689	1.129395	0.475586	0.882324
25765		-14.318920	14.695240	16.707643	1.476313	0.022455	-3.788684	1.125244	0.533203	0.880615
25766		-13.109118	16.726372	16.616835	0.688692	-0.370141	-3.831512	1.121582	0.575439	0.875244
25767		-11.269157	16.518413	15.801837	-0.280350	-0.676386	-3.660721	1.122070	0.630859	0.873535
25768		-9.552856	14.382032	14.050061	-1.039379	-0.988512	-3.186318	1.130127	0.655273	0.883545
25769		-8.739708	12.758874	12.005769	-1.439851	-1.430436	-2.460291	1.156250	0.675293	0.883057
25770		-7.307033	10.482617	10.298512	-1.491456	-1.976182	-1.606802	1.184570	0.688721	0.878662
25771		-6.100499	8.460263	8.895517	-1.203611	-2.542068	-0.596871	1.231445	0.690918	0.868164
25772		-5.979058	8.159510	7.720769	-0.811203	-3.156369	0.445557	1.287354	0.679932	0.845459
25773		-6.163143	8.665257	6.694943	-0.573293	-3.807203	1.352627	1.359131	0.669189	0.812256
25774		-5.767214	8.929188	5.917994	-0.501417	-4.416193	2.028394	1.440430	0.636230	0.764648
25775		-6.012289	8.672600	5.716624	-0.508430	-4.930031	2.524409	1.521973	0.598633	0.702637
25776		-6.610772	7.535950	5.741205	-0.447242	-5.375514	2.918561	1.606201	0.552490	0.632324
25777		-8.709442	6.549543	5.844007	-0.189166	-5.813107	3.282880	1.695068	0.497314	0.540771
25778		-10.067078	6.202505	5.718942	0.058974	-6.374878	3.617285	1.781982	0.433350	0.435059
25779		-9.102466	5.816016	5.664152	0.342224	-6.807443	3.875375	1.862549	0.358398	0.314453
25780		-8.247812	5.738871	6.315514	0.694139	-6.929654	4.071125	1.925781	0.276611	0.181396
25781		-9.680274	5.242074	6.687848	1.078058	-6.919712	4.300053	1.978027	0.181641	0.041992
25782		-10.772928	5.183548	7.492565	1.381286	-6.932859	4.573803	2.021973	0.073486	-0.098877
25783		-11.517063	4.521781	8.890995	1.655401	-6.915033	4.820836	2.044189	-0.048096	-0.241699
25784		-13.745954	3.297985	10.003961	2.050326	-6.886778	5.107060	2.051025	-0.178711	-0.388672
25785		-17.024433	3.148300	10.514225	2.557472	-6.861347	5.416540	2.043213	-0.335938	-0.530518
25786		-21.008326	4.840112	10.731030	2.787510	-6.886612	5.660183	2.006104	-0.486572	-0.670654
25787		-24.239473	5.282881	10.667525	2.514148	-6.883065	5.788619	1.942871	-0.652588	-0.816895
25788		-28.197041	4.658529	9.137309	1.958506	-6.777072	5.827497	1.845703	-0.803467	-0.957520
25789		-33.056832	3.390607	5.735155	1.246478	-6.607046	5.655567	1.745605	-0.931885	-1.081543
25790		-36.671288	-1.619046	0.814042	0.597588	-6.260756	5.309056	1.626953	-1.044922	-1.197998
25791		-38.875106	-8.074352	-5.691922	0.440804	-5.623192	4.856651	1.512207	-1.138184	-1.287109
25792		-37.838393	-9.320745	-12.501232	0.658724	-4.677946	3.972893	1.403320	-1.211426	-1.349121
25793		-38.266684	-8.392204	-18.710352	0.606676	-3.518811	2.625115	1.320313	-1.251465	-1.390869
25794		-39.962122	-8.150942	-24.519210	0.213912	-2.702234	1.286819	1.282959	-1.269043	-1.426758
25795		-36.393441	-10.122002	-27.356078	0.058121	-1.929486	0.542411	1.247803	-1.278076	-1.443604
25796		-28.900474	-10.686138	-26.739810	0.012846	-0.722194	0.422584	1.239258	-1.289063	-1.445557
25797		-24.797943	-12.144093	-24.538722	0.225500	0.679732	0.827080	1.246582	-1.311279	-1.421387
25798		-19.663629	-2.932374	-20.576771	-0.152916	2.420916	1.037262	1.281738	-1.304688	-1.383301
25799		-20.747150	-3.672664	-17.939019	-1.316680	4.265783	0.451099	1.354492	-1.280273	-1.326172
25800		-22.258979	-4.969641	-25.554815	-2.618703	5.802723	-2.202718	1.491699	-1.198242	-1.238770
25801		-43.356440	-6.818073	17.720971	0.135834	7.989253	-5.097623	1.644531	-1.114014	-1.108643
25802		-59.898735	26.836486	31.902172	-2.144459	5.430072	-4.816463	1.747559	-1.000977	-1.035156
25803		-6.855565	14.153551	15.887632	-3.266181	3.266591	-3.875400	1.795166	-0.889893	-1.016846
25804		-28.948341	-10.723714	11.484273	-2.853792	0.527214	-2.426948	1.805664	-0.805420	-1.004395
25805		-19.747932	-13.174903	8.058906	-1.372914	0.157059	-1.075712	1.804443	-0.765625	-0.988525
25806		-12.033307	-4.735747	10.990745	-0.972501	0.050087	-0.350186	1.796631	-0.732422	-0.972412
25807		-3.827753	-0.324039	16.853565	-0.730024	0.168685	0.118061	1.778320	-0.717041	-0.951904
25808		-1.168317	4.911073	9.675617	-0.593381	0.468824	0.346453	1.775391	-0.697021	-0.929199
25809		-9.923514	6.194658	4.652397	-0.605152	0.306300	0.276912	1.756836	-0.677246	-0.910645
25810		-10.377337	7.173937	5.363627	-0.767215	0.079858	0.085967	1.742676	-0.652832	-0.903076
25811		-7.495644	6.310863	8.476036	-0.729571	0.053994	0.045127	1.726074	-0.626221	-0.891113
25812		-8.210123	4.680513	10.837064	-0.598093	0.150931	-0.084527	1.718750	-0.606201	-0.876953
25813		-4.477216	3.849418	9.580600	-0.418936	0.411113	-0.276254	1.706543	-0.577393	-0.856445
25814		-9.118083	2.910996	9.320885	-0.226199	0.601353	-0.305865	1.703613	-0.551025	-0.831787
25815		-11.432640	4.196538	9.668794	-0.196600	0.851939	-0.385387	1.702881	-0.531006	-0.794189
25816		-5.779865	5.893304	12.315292	-0.238302	1.449576	-0.543636	1.704102	-0.504639	-0.752441
25817		-8.539198	6.142729	15.480903	-0.203592	2.265400	-0.832642	1.705078	-0.469238	-0.694092
25818		-5.870221	2.780877	15.500679	0.092406	3.244212	-1.159964	1.725830	-0.433838	-0.610107
25819		-1.143386	1.872122	16.153280	0.436298	4.274303	-1.442394	1.737793	-0.398682	-0.515625
25820		-5.281181	-0.814751	14.268696	0.951017	5.232331	-1.581426	1.745605	-0.367920	-0.395264
25821		-5.052000	-2.607782	12.558589	1.287011	6.153936	-1.577144	1.755127	-0.328125	-0.264893
25822		-2.817086	-1.123956	11.171047	1.431060	6.901627	-1.316033	1.742432	-0.295410	-0.123535
25823		-3.356772	-1.450378	7.960691	1.549246	7.632176	-1.207584	1.734619	-0.269043	0.030518
25824		-2.765873	1.546423	7.332274	1.732738	8.368873	-0.929376	1.702393	-0.249756	0.193359
25825		-12.903491	5.966050	6.467285	1.703218	8.581740	-0.911073	1.660889	-0.216797	0.342773
25826		-17.910327	7.094415	2.883948	1.623368	8.097404	-1.413842	1.605713	-0.177490	0.475098
25827		-21.950462	7.712150	-0.352456	1.541111	7.020843	-1.508898	1.552979	-0.133301	0.571289
25828		-16.843909	6.064627	0.076424	1.642599	5.963513	-1.568961	1.493652	-0.100342	0.650635
25829		-11.817289	4.921736	0.878114	1.569202	5.088749	-1.615861	1.443359	-0.062744	0.708740
25830		-10.239899	3.418316	3.520847	1.310973	4.503640	-1.764009	1.397217	-0.018555	0.751709
25831		-6.171229	2.522011	4.855020	1.087768	4.377228	-1.963036	1.344727	0.018799	0.797119
25832		-5.476130	1.749298	6.498437	1.001836	4.861306	-2.127449	1.285645	0.056396	0.846680
25833		-9.887231	-0.026927	8.436065	1.323648	5.293874	-2.170483	1.226074	0.098389	0.900146
25834		-13.913734	-3.076167	10.570683	2.326786	5.364735	-2.268870	1.166504	0.149170	0.940918
25835		-16.540174	-2.132870	12.150665	3.707134	5.166106	-2.491460	1.106201	0.219971	0.980957
25836		-20.812896	3.375974	12.905387	4.528833	4.622798	-2.864472	1.059082	0.297607	0.997559
25837		-22.998626	9.860721	14.670990	4.293348	3.572689	-3.434852	1.016357	0.375000	1.010010
25838		-22.816070	11.464418	15.852064	3.421128	2.337920	-3.910270	0.991699	0.448242	1.007568
25839		-20.634161	11.465991	16.105470	2.545432	1.271657	-4.100342	0.971924	0.510498	1.001465
25840		-19.276356	11.725778	15.958922	1.931913	0.520689	-4.078621	0.961182	0.570313	0.993408
25841		-19.296237	14.148490	15.925265	1.316328	-0.043271	-3.928730	0.952637	0.623535	0.987549
25842		-18.429861	17.796756	15.694607	0.300883	-0.713091	-3.761736	0.955811	0.663574	0.984131
25843		-15.818356	19.549591	15.070867	-1.131419	-1.424993	-3.540542	0.961670	0.692383	0.983398
25844		-12.181671	16.774986	13.423367	-2.353187	-2.034578	-3.161077	0.985840	0.701416	0.985352
25845		-8.446140	12.538101	12.035720	-2.862180	-2.485522	-2.388620	1.007813	0.708008	0.991699
25846		-4.301739	8.597688	10.881587	-2.557358	-2.694195	-1.353242	1.054688	0.703613	0.989990
25847		-2.586507	6.922418	8.980951	-1.644173	-2.819217	-0.242519	1.101807	0.697021	0.988281
25848		-4.151983	8.242182	6.947963	-0.733438	-3.169766	0.767185	1.159912	0.688477	0.967529
25849		-5.052447	9.669720	5.913650	-0.252509	-3.836174	1.491660	1.236084	0.675293	0.934326
25850		-4.534611	9.702717	5.436445	-0.139083	-4.488390	2.022780	1.319336	0.657715	0.895020
25851		-4.541028	8.675738	5.131793	-0.113691	-5.007226	2.429131	1.407471	0.622559	0.841309
25852		-5.549508	7.096114	5.099159	0.018211	-5.396126	2.813544	1.506592	0.589600	0.777100
25853		-7.846606	5.964111	5.256445	0.343984	-5.808550	3.226576	1.592529	0.552246	0.700195
25854		-10.046066	6.063768	5.475547	0.626345	-6.356564	3.633405	1.688477	0.486084	0.600586
25855		-10.380837	6.428289	5.812056	0.755368	-6.901884	3.943759	1.782471	0.415527	0.479980
25856		-9.621847	5.680996	6.327079	0.883833	-7.234352	4.175795	1.863281	0.333984	0.351318
25857		-9.428542	4.181524	6.696135	1.151267	-7.338282	4.441739	1.935303	0.250000	0.213867
25858		-10.468052	3.495183	7.670371	1.497996	-7.294581	4.785427	1.990479	0.146240	0.068604
25859		-12.579048	3.768416	8.541223	1.767170	-7.242321	5.097714	2.030273	0.022461	-0.082520
25860		-14.737182	2.980748	9.198616	1.995341	-7.215742	5.444709	2.048584	-0.112549	-0.237549
25861		-18.353252	2.606395	9.205990	2.180672	-7.193248	5.844472	2.051758	-0.267578	-0.381836
25862		-22.727772	3.812889	8.511454	2.128440	-7.246874	6.191658	2.028320	-0.427002	-0.536377
25863		-25.632973	4.840609	8.298539	1.769000	-7.244978	6.377397	1.971924	-0.595215	-0.691162
25864		-29.578128	4.263417	7.103068	1.235879	-7.129855	6.499750	1.892822	-0.757080	-0.837646
25865		-34.934723	3.910051	4.094799	0.629219	-6.983634	6.537386	1.786621	-0.905518	-0.980225
25866		-38.718785	2.609239	-1.327979	-0.092798	-6.680218	6.279478	1.661621	-1.018555	-1.109375
25867		-39.081829	-2.419619	-8.564109	-0.629039	-5.991736	5.687479	1.540527	-1.120605	-1.217285
25868		-36.368128	-7.649655	-15.738373	-0.582803	-4.775069	4.785952	1.422607	-1.187012	-1.305176
25869		-34.256475	-11.683084	-20.606211	-0.008242	-3.266866	3.666085	1.348633	-1.238037	-1.340332
25870		-36.354869	-10.259466	-24.709906	0.403279	-2.123109	2.534130	1.287354	-1.273682	-1.360840
25871		-35.003731	-8.847538	-27.062692	0.311935	-1.303548	1.587027	1.254883	-1.298096	-1.370850
25872		-31.685021	-5.835173	-24.939264	-0.285512	-0.622984	0.924859	1.241943	-1.309326	-1.381348
25873		-29.977337	-11.553701	-24.595117	-0.543534	0.153846	0.833163	1.237549	-1.309326	-1.372803
25874		-22.594303	-12.096620	-20.773289	0.143005	1.504300	1.070562	1.257813	-1.322754	-1.332031
25875		-19.072791	-2.489029	-17.305487	-0.470610	3.482585	0.489926	1.313232	-1.320557	-1.276611
25876		-19.450596	0.813171	-16.473192	-1.322513	5.260638	-1.030223	1.416016	-1.269531	-1.200928
25877		-8.528616	0.451407	-7.577506	-0.519189	6.768597	-4.692906	1.584229	-1.178711	-1.060547
25878		-67.918544	41.749587	34.385934	-1.918440	7.043642	-6.266185	1.702148	-1.041016	-0.987305
25879		-37.703611	-0.838789	7.500878	-3.975850	3.429173	-3.701602	1.751709	-0.925537	-0.958740
25880		-11.154739	-3.474151	25.009653	-3.115130	0.965693	-2.629171	1.764893	-0.850098	-0.950195
25881		-18.421141	-10.128482	9.122935	-1.371239	0.136334	-1.405155	1.758545	-0.794678	-0.938965
25882		-21.669683	-14.123376	9.424380	-0.842501	0.016392	-0.097384	1.746338	-0.765869	-0.923096
25883		-3.416355	0.695466	12.470237	-0.797802	-0.017178	0.346302	1.727783	-0.746094	-0.913086
25884		-1.020670	1.835540	12.453687	-0.476186	0.242675	0.487035	1.714355	-0.739502	-0.894287
25885		-6.614475	4.755939	7.673873	-0.378035	0.352698	0.494940	1.695801	-0.723877	-0.877686
25886		-9.367714	10.453541	6.710254	-0.487248	0.279253	0.245200	1.684082	-0.704102	-0.863525
25887		-7.664658	5.108802	6.954012	-0.396191	0.313294	0.061125	1.672363	-0.688477	-0.838623
25888		-8.796301	4.152117	7.573969	-0.299621	0.293785	0.034336	1.669434	-0.666504	-0.822266
25889		-6.189509	6.401949	8.320415	-0.253567	0.309644	-0.228487	1.661865	-0.639893	-0.799805
25890		-5.145325	4.001901	9.075763	-0.154767	0.476677	-0.425851	1.654297	-0.619873	-0.777100
25891		-11.517040	3.923357	9.561548	-0.125512	0.635889	-0.443935	1.655518	-0.588867	-0.743896
25892		-7.801784	5.538337	9.840182	-0.177953	1.045665	-0.554373	1.650146	-0.566895	-0.695801
25893		-6.991684	6.734047	12.867701	-0.008490	1.667410	-0.696785	1.651367	-0.538086	-0.647705
25894		-9.425719	4.274733	14.040713	-0.270768	2.424760	-0.947509	1.659180	-0.505127	-0.584961
25895		-3.685028	1.656871	14.256701	0.060544	3.223092	-1.090266	1.668945	-0.471924	-0.500977
25896		-3.200863	1.027791	15.420259	0.391716	4.154198	-1.256427	1.663330	-0.441162	-0.404297
25897		-5.054810	-0.883985	13.385373	1.103241	5.232792	-1.414464	1.673096	-0.408203	-0.294678
25898		-4.508645	-0.993119	12.558181	1.431243	6.117046	-1.342094	1.662842	-0.375244	-0.168457
25899		-4.333968	-0.211652	11.353252	1.588947	6.850350	-1.164150	1.643555	-0.344482	-0.031494
25900		-2.391906	0.428953	8.650014	1.737051	7.692972	-1.008513	1.618164	-0.322754	0.110107
25901		-6.445457	1.873918	7.882069	2.013976	8.428012	-0.856470	1.581299	-0.298828	0.259766
25902		-12.302411	5.602281	7.165741	2.116359	8.553794	-0.926459	1.526367	-0.259521	0.402832
25903		-21.912523	6.436437	4.278609	2.157189	8.127027	-1.175059	1.471436	-0.224365	0.511719
25904		-21.872587	6.699684	1.193625	2.245910	7.058841	-1.318478	1.414307	-0.187012	0.608154
25905		-18.405883	6.508979	1.346726	2.348646	5.789151	-1.301145	1.359619	-0.149414	0.661865
25906		-8.851530	5.740372	2.110123	2.164319	4.953053	-1.441853	1.318115	-0.116455	0.718018
25907		-8.708684	4.398927	5.313074	1.665989	4.513399	-1.597721	1.270264	-0.085449	0.757324
25908		-7.335793	3.260035	7.988577	1.207561	4.406114	-1.766168	1.222168	-0.047852	0.787598
25909		-8.820810	1.370974	10.423859	1.057312	4.634553	-1.745722	1.176758	-0.021484	0.826904
25910		-15.923832	-0.793611	13.483900	1.564695	4.414927	-1.856954	1.139893	0.018311	0.868164
25911		-18.666269	0.530372	17.699475	2.455375	3.723160	-2.271523	1.109131	0.069336	0.889893
25912		-20.580927	3.145221	19.896063	2.944730	2.835862	-2.587808	1.087402	0.122559	0.898682
25913		-17.269308	7.651255	20.094354	3.074640	1.943668	-3.082594	1.083008	0.188965	0.903076
25914		-15.860190	10.250829	20.038011	2.971087	1.256709	-3.666600	1.069580	0.257813	0.907471
25915		-15.817217	11.103873	19.269675	2.753150	0.635258	-4.127628	1.067139	0.331055	0.905273
25916		-16.228201	11.927396	18.532445	2.649864	0.049977	-4.305499	1.071533	0.399902	0.886475
25917		-15.306854	13.809824	17.550651	2.467575	-0.463238	-4.299215	1.067139	0.470947	0.871582
25918		-14.248443	18.056175	16.428395	1.840281	-1.034281	-4.208102	1.073975	0.533203	0.863281
25919		-11.611942	21.120234	15.927669	0.447890	-1.597592	-4.056017	1.087891	0.588623	0.849121
25920		-8.256767	20.107926	14.310682	-1.159353	-1.997873	-3.774607	1.100098	0.622070	0.846191
25921		-5.983788	15.767614	12.349580	-2.181522	-2.359823	-3.087751	1.128174	0.646484	0.841309
25922		-4.182615	11.358304	10.636154	-2.381271	-2.720866	-2.015667	1.167969	0.657715	0.839111
25923		-3.804306	8.785022	9.303563	-1.889364	-3.124207	-0.683026	1.212646	0.651123	0.826660
25924		-4.363101	8.535327	7.945456	-1.276281	-3.766237	0.714844	1.282227	0.637939	0.793457
25925		-3.070173	9.060318	6.859064	-0.907495	-4.447385	1.906699	1.354736	0.607178	0.754395
25926		-1.296233	8.906678	5.992231	-0.750926	-4.832786	2.759444	1.440674	0.565186	0.705322
25927		-1.456229	7.522621	5.559538	-0.640974	-5.021199	3.352445	1.520508	0.516846	0.645508
25928		-3.585053	5.711753	5.812263	-0.407136	-5.196259	3.817741	1.616211	0.454834	0.582031
25929		-6.271740	4.961507	6.164494	-0.093300	-5.523189	4.191122	1.692139	0.384277	0.503906
25930		-8.090811	5.138020	6.771843	0.164181	-6.003912	4.421894	1.772705	0.306885	0.398193
25931		-8.947545	5.098020	7.665912	0.348288	-6.452705	4.506175	1.847168	0.220947	0.286621
25932		-9.115205	4.727700	8.299872	0.489497	-6.776409	4.530060	1.908691	0.121338	0.156006
25933		-9.885304	4.126372	9.057799	0.668332	-7.004663	4.549884	1.949951	0.024170	0.014648
25934		-11.080845	3.736245	9.928117	0.906359	-7.188566	4.568246	1.987061	-0.081787	-0.130615
25935		-13.244699	3.026880	11.112982	1.230341	-7.346708	4.619029	1.998047	-0.198975	-0.280029
25936		-15.866163	2.227867	11.440963	1.619756	-7.495647	4.755513	1.998047	-0.325195	-0.439697
25937		-19.987294	3.192005	10.576405	1.993169	-7.632960	4.917255	1.969482	-0.464600	-0.593018
25938		-24.284405	6.045459	9.713073	1.958587	-7.737235	4.936592	1.922852	-0.593018	-0.748779
25939		-28.679519	8.534741	8.357623	1.415064	-7.728445	4.805637	1.856201	-0.721436	-0.904541
25940		-33.479102	8.791152	5.114524	0.625681	-7.497178	4.552397	1.748779	-0.827637	-1.065430
25941		-38.082933	4.408869	-0.674675	0.094124	-6.910092	4.317953	1.645264	-0.922852	-1.190674
25942		-40.713682	-2.604931	-8.001294	0.145759	-5.848839	4.221634	1.530273	-1.004883	-1.301514
25943		-42.446777	-6.126817	-14.360244	0.484262	-4.556566	4.140463	1.432617	-1.082520	-1.361328
25944		-39.997659	-7.661155	-19.547498	0.511828	-3.215276	3.575160	1.356934	-1.146973	-1.402344
25945		-38.319245	-8.917908	-24.691264	0.112315	-1.917840	2.725514	1.300049	-1.180176	-1.425049
25946		-33.282568	-9.864364	-26.540206	-0.531538	-0.691569	1.772477	1.280762	-1.200195	-1.437256
25947		-33.212122	-10.793584	-26.793646	-1.052811	0.438417	1.048252	1.280518	-1.193604	-1.439697
25948		-33.499773	-12.004442	-26.610775	-0.986089	1.403389	0.529794	1.304688	-1.180420	-1.418701
25949		-36.627415	-7.776879	-37.760792	-0.577041	2.720631	-0.584593	1.379395	-1.156006	-1.363770
25950		-30.119629	-23.330775	-32.607835	-0.156613	6.995994	-3.257935	1.539795	-1.100586	-1.209473
25951		-58.513011	3.644162	16.818952	0.465296	8.462527	-4.130482	1.673096	-1.031982	-1.060059
25952		-39.150097	39.816573	40.790754	-1.197283	5.005500	-3.330466	1.734619	-0.943359	-0.998535
25953		-0.668732	3.165079	14.003158	-1.923944	3.395881	-2.388052	1.776855	-0.876709	-0.947266
25954		-29.260730	-7.124370	8.454835	-1.532474	0.825007	-1.767744	1.783203	-0.805664	-0.925781
25955		-13.910656	-0.769192	0.188003	-0.910604	0.085826	-0.975881	1.768799	-0.768066	-0.918457
25956		-11.585471	-3.112449	9.021759	-0.943142	-0.315357	-0.264876	1.754395	-0.739258	-0.904541
25957		-2.606822	0.156530	11.270452	-0.907579	-0.216196	0.085545	1.736084	-0.721680	-0.898926
25958		-6.248594	5.918721	8.776943	-0.874471	-0.118043	0.332073	1.717285	-0.695068	-0.895508
25959		-9.936890	2.856512	9.239281	-0.807952	-0.016143	0.280951	1.703369	-0.681641	-0.881104
25960		-7.519996	6.484782	8.044315	-0.882607	-0.007632	0.133736	1.691406	-0.655273	-0.871338
25961		-6.511889	5.043626	7.076334	-0.740698	0.051106	0.034881	1.679443	-0.633057	-0.857178
25962		-7.349567	1.552663	8.781352	-0.461526	0.144190	-0.081085	1.676758	-0.615234	-0.838623
25963		-8.560845	3.816653	9.789194	-0.261267	0.233891	-0.142979	1.664795	-0.591064	-0.813965
25964		-8.692631	4.191895	9.440190	-0.150981	0.357792	-0.179516	1.648438	-0.573242	-0.793213
25965		-9.357822	2.409097	9.488296	-0.025135	0.510760	-0.125217	1.647705	-0.553467	-0.759766
25966		-9.509869	4.347390	9.938081	0.008621	0.757864	-0.124764	1.638428	-0.544678	-0.721924
25967		-7.335653	4.799441	12.046024	-0.149637	1.217393	-0.215570	1.633057	-0.518066	-0.676025
25968		-6.816268	3.343496	14.430356	0.006928	1.996232	-0.381621	1.627686	-0.496094	-0.617188
25969		-5.450772	3.652167	16.598559	0.148768	3.043480	-0.669609	1.633545	-0.471924	-0.535156
25970		-5.157391	3.402474	16.948710	0.629972	4.094957	-1.001317	1.632324	-0.445557	-0.436279
25971		-1.197294	1.776516	15.941177	1.193648	5.209309	-1.404816	1.639893	-0.414795	-0.324463
25972		-2.094997	0.092916	14.469470	1.699725	6.424658	-1.536647	1.638428	-0.379639	-0.193848
25973		-5.172307	0.893815	11.594115	1.675607	7.404032	-1.432170	1.628418	-0.351318	-0.052490
25974		1.309113	1.615910	9.666257	1.848226	8.186232	-1.325853	1.600342	-0.320557	0.103516
25975		-4.951648	3.183956	8.791678	2.060107	9.018666	-1.135844	1.561035	-0.290039	0.250977
25976		-15.882831	2.887697	6.459263	2.434842	9.141955	-1.314872	1.510498	-0.252686	0.400391
25977		-28.089120	3.130356	0.590917	2.455877	8.077356	-1.217760	1.450928	-0.213135	0.500732
25978		-24.209141	4.444089	-2.893733	2.329060	6.231805	-1.125687	1.407715	-0.186768	0.567627
25979		-14.735407	6.152556	-0.704867	1.859631	4.667156	-1.215222	1.364258	-0.158203	0.606934
25980		-4.333523	6.547232	3.187092	0.809530	4.104633	-1.668913	1.329590	-0.120605	0.650391
25981		-4.133500	0.196127	6.901944	0.060673	4.067103	-1.979350	1.281738	-0.087402	0.683105
25982		-5.249443	-2.471612	10.661290	0.327220	4.426124	-2.143995	1.247070	-0.054443	0.730713
25983		-11.373425	-1.503153	14.033267	1.207163	4.371811	-2.303978	1.205566	-0.014648	0.761230
25984		-14.291644	0.143517	17.150905	2.059654	3.799055	-2.612217	1.175049	0.034180	0.780762
25985		-15.203455	0.094404	18.728517	2.885653	3.085508	-3.029945	1.152832	0.098389	0.808594
25986		-15.652526	1.435691	18.448457	3.666471	2.335464	-3.369807	1.132813	0.167236	0.810547
25987		-14.583632	5.344676	18.367322	4.246056	1.602308	-3.753505	1.125732	0.244873	0.812500
25988		-13.968948	9.605988	17.852520	4.405021	0.986240	-4.248902	1.107422	0.331299	0.803711
25989		-14.339700	12.689042	16.636240	4.174658	0.385414	-4.729118	1.102539	0.415771	0.788330
25990		-15.670462	15.913556	15.803505	3.628114	-0.210698	-4.994973	1.097412	0.506836	0.766602
25991		-16.910106	19.679729	15.485891	2.752360	-0.810072	-5.184464	1.094482	0.593506	0.742920
25992		-16.746618	21.629185	15.542549	1.532715	-1.333133	-5.123364	1.085693	0.664551	0.723633
25993		-14.276686	21.473339	15.375426	0.116129	-1.806257	-4.668013	1.086182	0.717773	0.713623
25994		-10.883468	20.108737	13.950460	-1.184249	-2.065111	-3.811344	1.091553	0.757813	0.706299
25995		-8.433256	16.765875	11.644265	-2.027344	-2.183255	-2.656145	1.113281	0.773438	0.708008
25996		-6.842650	12.772113	9.687508	-2.207570	-2.286179	-1.279114	1.139648	0.784424	0.714111
25997		-5.969519	10.609215	8.294245	-1.939078	-2.446553	0.235794	1.182129	0.780029	0.706055
25998		-5.414481	10.905265	7.192495	-1.690517	-2.731866	1.584732	1.245361	0.753662	0.700928
25999		-4.828931	10.765586	6.559309	-1.676062	-3.109977	2.567963	1.309082	0.709473	0.689697
26000		-4.536616	9.241386	6.099822	-1.663115	-3.484656	3.215733	1.384277	0.662842	0.663818
26001		-5.386222	7.621723	5.789645	-1.520798	-3.962877	3.678680	1.466309	0.607666	0.627686
26002		-6.021424	6.044989	6.010046	-1.191151	-4.477623	3.981395	1.550781	0.545898	0.576904
26003		-7.211578	5.751579	6.250290	-0.733930	-5.016584	4.135663	1.637695	0.479492	0.511475
26004		-8.534574	5.736898	6.495407	-0.312111	-5.563360	4.177897	1.716064	0.408936	0.416260
26005		-9.369361	5.661692	6.643734	0.033269	-6.072190	4.180789	1.794434	0.329346	0.317139
26006		-9.244315	5.669040	7.368598	0.359474	-6.458599	4.176806	1.862061	0.247803	0.198730
26007		-10.609042	4.709026	8.068841	0.809703	-6.760040	4.272546	1.912109	0.155029	0.059570
26008		-11.686358	4.235225	8.711105	1.339556	-7.057494	4.528437	1.949219	0.055664	-0.085938
26009		-12.238200	3.919605	9.440021	1.870869	-7.204054	4.823750	1.971191	-0.061523	-0.230957
26010		-14.080758	3.657582	9.846284	2.406214	-7.233583	5.142815	1.973389	-0.189941	-0.380127
26011		-17.999963	3.306108	9.546172	2.821103	-7.251712	5.564569	1.958740	-0.340576	-0.526611
26012		-22.337798	5.075378	9.051486	2.848701	-7.304172	5.994955	1.915283	-0.497803	-0.670898
26013		-26.504154	7.441274	8.270194	2.272444	-7.222892	6.204189	1.847168	-0.657227	-0.815186
26014		-30.242859	6.684681	6.577962	1.320494	-6.893043	6.206879	1.758789	-0.803467	-0.945068
26015		-34.590419	3.248015	3.357475	0.499484	-6.312845	6.053701	1.649658	-0.932129	-1.065186
26016		-39.623765	-3.009882	-1.294108	0.198007	-5.523404	5.832136	1.533447	-1.045166	-1.168701
26017		-43.499972	-9.814582	-7.837471	0.319688	-4.699880	5.599440	1.416504	-1.142822	-1.240723
26018		-42.283085	-9.009111	-14.615777	0.375632	-3.916882	4.701767	1.312012	-1.211670	-1.292480
26019		-39.580744	-9.932943	-20.281542	0.122877	-2.883468	3.000924	1.248779	-1.249512	-1.338379
26020		-37.069669	-10.700291	-25.355612	-0.336661	-1.845380	1.208613	1.217773	-1.253906	-1.359619
26021		-33.614271	-12.035801	-26.812527	-0.564504	-0.860891	-0.070803	1.208740	-1.249512	-1.370361
26022		-31.825149	-11.490815	-26.319711	-0.436693	0.075708	-0.575675	1.221436	-1.231689	-1.366699
26023		-29.246525	-9.966216	-24.233291	-0.149551	0.985353	-0.605481	1.257080	-1.229492	-1.338867
26024		-21.419136	-3.488260	-17.706636	-0.294438	2.205044	-0.611072	1.307373	-1.209473	-1.303223
26025		-26.408423	-6.257426	-21.997197	-1.108777	3.762065	-1.135069	1.379150	-1.160645	-1.236084
26026		-11.556415	1.975811	-15.424458	-2.166385	5.735635	-2.635792	1.500977	-1.078613	-1.148682
26027		-14.966328	4.422585	13.879664	-0.081102	7.986027	-4.705481	1.646973	-0.989990	-0.991211
26028		-66.128377	37.334685	40.146411	-2.470021	5.706337	-4.753688	1.705566	-0.881348	-0.945313
26029		-29.735329	-18.135098	9.192550	-2.650207	1.543229	-1.904273	1.716553	-0.805908	-0.926270
26030		-19.834421	-4.914791	15.647237	-1.694191	0.059255	-1.500741	1.708252	-0.759277	-0.923340
26031		-7.996454	-1.007673	5.703979	-1.066501	-0.133659	-0.674594	1.697998	-0.714844	-0.914063
26032		-14.298202	-5.308455	5.334873	-1.023499	-0.458902	-0.189916	1.683594	-0.683838	-0.917236
26033		-5.237562	1.609747	9.678579	-0.960964	-0.244416	0.178016	1.667236	-0.664063	-0.903076
26034		2.200778	2.288444	10.702434	-0.655054	0.084600	0.246307	1.655518	-0.641846	-0.893066
26035		-12.761518	4.850415	7.483117	-0.497107	0.152491	0.223492	1.647949	-0.619629	-0.872559
26036		-9.644997	7.800375	9.381748	-0.502180	0.182155	0.010324	1.647461	-0.602051	-0.856201
26037		-7.698802	3.938665	9.767384	-0.366807	0.270238	-0.129154	1.637695	-0.579834	-0.837646
26038		-7.862628	1.336951	9.520995	-0.230698	0.400946	-0.142036	1.621338	-0.560059	-0.810791
26039		-6.446543	2.958525	7.944820	-0.167760	0.525945	-0.238572	1.618408	-0.537842	-0.775391
26040		-7.914998	4.174679	9.350718	-0.089022	0.595998	-0.211563	1.615479	-0.520264	-0.744141
26041		-9.877395	5.958349	9.344324	-0.059422	0.854029	-0.283620	1.607910	-0.495850	-0.706543
26042		-7.432873	7.351234	11.555767	-0.326805	1.359873	-0.537760	1.604492	-0.467285	-0.656494
26043		-8.566845	5.614916	13.567390	-0.320833	2.006644	-0.837935	1.607910	-0.436279	-0.593750
26044		-5.813125	5.469154	14.524581	-0.276191	2.765701	-1.138609	1.602051	-0.398682	-0.531006
26045		-4.310019	3.001697	14.768887	0.040431	3.611407	-1.385603	1.607422	-0.361328	-0.443115
26046		-5.496420	1.173681	14.194789	0.464358	4.513798	-1.536806	1.601563	-0.325928	-0.348633
26047		-2.442040	0.587985	13.594273	1.012857	5.467575	-1.713924	1.595459	-0.286377	-0.239258
26048		-5.007904	1.213856	12.617332	1.185569	6.369785	-1.728194	1.582764	-0.249023	-0.117432
26049		-3.972065	2.176809	11.171323	1.170466	7.190155	-1.724231	1.561279	-0.213867	0.002441
26050		-1.987005	2.536888	9.364304	1.433795	8.007249	-1.804532	1.528809	-0.178711	0.141357
26051		-7.181177	3.872510	9.151878	1.596388	8.673521	-1.858137	1.487061	-0.136963	0.278076
26052		-20.879183	3.368396	4.590018	1.947826	8.589948	-1.762183	1.438721	-0.102051	0.393555
26053		-23.639621	0.470212	1.763202	2.289240	7.677575	-1.645620	1.377197	-0.066895	0.485596
26054		-15.935148	2.843817	2.649974	2.583985	6.559055	-1.632840	1.333496	-0.024902	0.549805
26055		-10.717074	4.668698	3.801564	2.630801	5.786817	-1.591480	1.283203	0.005859	0.605957
26056		-6.596593	3.814518	5.035144	2.319135	5.430892	-1.892329	1.235107	0.045654	0.651367
26057		-9.102272	1.690682	6.075151	1.845058	5.322664	-2.230899	1.189209	0.087646	0.700684
26058		-11.965075	1.791635	7.648568	1.372568	5.213036	-2.414525	1.134521	0.123047	0.741943
26059		-16.520138	0.011386	9.129000	1.145685	4.728131	-2.561694	1.102051	0.158447	0.778809
26060		-17.911128	-3.798809	12.325344	1.918661	4.071568	-3.009426	1.062500	0.204834	0.794434
26061		-18.165600	-1.654266	15.854484	2.894575	3.359751	-3.283003	1.029541	0.264648	0.809326
26062		-15.839432	3.064303	17.221523	3.350083	2.784495	-3.477629	1.007568	0.320068	0.816162
26063		-15.530913	6.433675	17.913156	3.406582	2.375031	-3.770791	0.980713	0.391113	0.820313
26064		-15.182796	8.993830	17.733176	3.103712	1.979913	-3.925732	0.956543	0.448730	0.822754
26065		-16.782199	10.721277	17.224428	2.708489	1.466082	-3.974552	0.938965	0.510986	0.814453
26066		-18.133132	13.042418	16.948368	2.255732	0.834311	-3.847473	0.928223	0.570801	0.816895
26067		-19.066764	16.466449	16.574485	1.593208	0.181688	-3.634629	0.922119	0.617432	0.811279
26068		-18.569834	20.130731	15.938640	0.474766	-0.548903	-3.346523	0.918701	0.655029	0.808105
26069		-15.563300	20.874555	14.707789	-1.017238	-1.227030	-2.985037	0.931396	0.677246	0.818115
26070		-10.854735	16.593201	13.295194	-2.161478	-1.683992	-2.394011	0.942139	0.686279	0.826416
26071		-7.606873	12.286146	11.371973	-2.546242	-1.967682	-1.445010	0.970947	0.688477	0.837158
26072		-5.675660	9.677249	9.436968	-2.283755	-2.197741	-0.393567	1.006836	0.679688	0.845947
26073		-5.749395	9.225845	7.935435	-1.798005	-2.538340	0.575808	1.056396	0.661865	0.844727
26074		-5.722150	10.425387	6.916703	-1.556769	-3.154505	1.343245	1.110352	0.646484	0.836914
26075		-4.937325	9.827723	6.066621	-1.570880	-3.846615	1.887520	1.182617	0.617920	0.816895
26076		-4.078872	7.993233	5.266570	-1.487871	-4.450252	2.368472	1.257324	0.584717	0.792725
26077		-3.376744	6.519145	4.836924	-1.237892	-4.913105	2.839619	1.341064	0.544922	0.749756
26078		-3.865858	5.863537	4.724784	-0.834856	-5.253647	3.260163	1.427490	0.496582	0.694336
26079		-5.559757	6.124941	4.956819	-0.447255	-5.603947	3.597200	1.520752	0.436768	0.628662
26080		-7.164544	6.223570	5.291737	-0.204132	-5.996711	3.871756	1.603271	0.372803	0.543945
26081		-7.866244	6.207536	6.033384	-0.073326	-6.376942	4.104677	1.690186	0.306641	0.448730
26082		-8.342264	5.409297	6.868434	0.074905	-6.650297	4.305268	1.764648	0.222900	0.334961
26083		-9.281373	4.469412	7.849794	0.290387	-6.855261	4.508700	1.832275	0.136719	0.208252
26084		-10.522253	3.386774	8.883935	0.607788	-7.028843	4.673710	1.877930	0.039551	0.077637
26085		-12.682528	1.534302	9.600510	1.090606	-7.243516	4.865658	1.915527	-0.073242	-0.069580
26086		-15.529619	0.077726	9.470135	1.778915	-7.489651	5.120955	1.928711	-0.197021	-0.220947
26087		-18.294413	0.952605	8.824371	2.445133	-7.697437	5.334026	1.926758	-0.325439	-0.370117
26088		-21.774011	4.058249	8.551556	2.572553	-7.877083	5.394492	1.891602	-0.464844	-0.533936
26089		-25.114132	7.109349	8.122303	1.996925	-7.954594	5.226614	1.840576	-0.599854	-0.683105
26090		-28.618151	7.191570	6.631928	1.115726	-7.836132	4.944324	1.766602	-0.712891	-0.835205
26091		-33.527848	4.348766	3.134192	0.490952	-7.512399	4.759390	1.683838	-0.825684	-0.976807
26092		-37.946144	-0.141643	-2.657046	0.365143	-6.906015	4.736478	1.576172	-0.927734	-1.095459
26093		-40.878344	-7.012554	-9.392904	0.663127	-5.883473	4.771229	1.470459	-1.025391	-1.186523
26094		-42.879877	-10.496648	-16.031372	1.133713	-4.585623	4.617831	1.364502	-1.118652	-1.243896
26095		-41.501239	-9.472885	-21.359897	1.445193	-3.398625	3.647924	1.288818	-1.187500	-1.269775
26096		-41.437312	-9.284049	-26.146775	1.148543	-2.347962	2.212592	1.241211	-1.227295	-1.292236
26097		-37.743213	-12.276872	-28.684443	0.569421	-1.554345	0.727769	1.223877	-1.242920	-1.294189
26098		-31.103891	-12.883461	-27.337188	0.435287	-0.571168	-0.265185	1.225830	-1.236328	-1.290039
26099		-26.710186	-7.264672	-25.990619	-0.468313	0.994903	-1.287996	1.271484	-1.202881	-1.273682
26100		-27.433768	-5.037099	-22.611851	-1.466032	2.433603	-2.140486	1.342773	-1.136230	-1.241455
26101		-22.177262	-15.876292	-32.140758	-1.952232	4.761078	-4.093359	1.477783	-1.047607	-1.145508
26102		-32.528339	2.033156	13.655806	0.703521	8.521630	-5.204870	1.616943	-0.956787	-0.988281
26103		-58.658534	46.740030	42.281024	-3.172623	5.650651	-4.760997	1.681885	-0.832520	-0.946777
26104		-20.732900	-15.411917	15.118512	-2.998323	2.238996	-2.056214	1.708252	-0.759277	-0.923340
26105		-19.611634	-14.398567	15.417019	-1.544198	0.842784	-1.582449	1.706543	-0.710449	-0.903564
26106		-13.707643	-2.334091	4.039175	-0.652590	0.083702	-0.685021	1.694092	-0.666260	-0.900635
26107		-13.090885	-2.521316	4.081037	-0.894968	-0.366370	-0.246482	1.675293	-0.639648	-0.895264
26108		-5.702813	6.411825	9.098764	-0.994684	-0.267326	0.077491	1.663330	-0.613037	-0.889648
26109		1.025357	5.862247	10.222243	-0.894613	-0.103661	0.129374	1.649170	-0.588623	-0.884033
26110		-11.271456	6.229123	7.107286	-0.863785	-0.030131	0.075369	1.639404	-0.564209	-0.872070
26111		-9.283692	6.822589	7.737322	-0.902800	-0.038743	-0.131547	1.631836	-0.533203	-0.860352
26112		-7.576762	2.439186	8.393419	-0.758101	0.031222	-0.228147	1.624023	-0.502197	-0.837891
26113		-9.357054	0.586253	9.234268	-0.537881	0.124540	-0.264581	1.623047	-0.475586	-0.823730
26114		-5.600461	3.648547	9.693670	-0.365340	0.274343	-0.265081	1.617676	-0.451172	-0.796875
26115		-9.126036	3.298915	10.431181	-0.239773	0.402951	-0.222234	1.605957	-0.431396	-0.765869
26116		-9.797317	3.723887	9.367676	-0.141895	0.662189	-0.240647	1.591797	-0.407227	-0.728271
26117		-7.087450	5.464961	11.646717	-0.201836	1.080293	-0.377661	1.588379	-0.378418	-0.682617
26118		-10.235984	3.260260	13.207506	-0.463101	1.748701	-0.605152	1.583008	-0.349609	-0.628174
26119		-5.442579	2.491651	15.618115	-0.189674	2.742705	-0.818439	1.586182	-0.316650	-0.554932
26120		-4.062570	1.980584	17.002586	0.197288	3.666183	-1.020447	1.578125	-0.285889	-0.470947
26121		-4.630920	1.298202	15.250433	0.763701	4.680814	-1.288366	1.577148	-0.257324	-0.374023
