// General information: 
//  MT Manager version: 2021.0.0 
//  XDA version: 2021.0.0 build 5908 rev 109668 built on 2021-04-19
// Device information: 
//  DeviceId: 00B4406E
//  ProductCode: MTW2-3A7G6
//  Firmware Version: 4.4.0
//  Hardware Version: 1.1.0
// Device settings: 
//  Filter Profile: human(46.1)
//  Option Flags: Orientation Smoother Disabled, Position/Velocity Smoother Disabled, Continuous Zero Rotation Update Disabled, AHS Disabled, ICC Disabled
// Coordinate system: ENU
PacketCounter	SampleTimeFine	Acc_X	Acc_Y	Acc_Z	Gyr_X	Gyr_Y	Gyr_Z	Mag_X	Mag_Y	Mag_Z
24843		-2.761140	-11.666976	12.591800	0.969069	-1.230619	-1.480327	-1.490967	-0.043701	0.795898
24844		3.012134	-14.365367	13.095471	0.249666	-0.121458	-0.188906	-1.497559	-0.037109	0.795654
24845		8.035773	-8.487802	9.877086	-0.194273	1.067750	1.060504	-1.510986	-0.025879	0.777832
24846		5.035303	-4.659065	7.675868	-0.571262	1.920340	0.982516	-1.532959	-0.012695	0.747070
24847		1.380583	-1.502641	6.093209	-0.434019	2.131255	0.718484	-1.545898	-0.003662	0.718750
24848		0.951021	1.236719	4.705154	0.190785	2.356593	0.420976	-1.574219	-0.001465	0.694580
24849		1.481798	3.289514	3.565528	0.785149	2.672992	0.292415	-1.596191	0.018311	0.652832
24850		2.820729	4.791511	3.842847	1.267947	2.936264	0.320057	-1.624756	0.031738	0.606934
24851		5.119453	5.556893	4.568141	1.507694	3.215557	0.529982	-1.646729	0.051758	0.560791
24852		7.153037	5.728091	4.618223	1.480739	3.405049	0.751236	-1.670898	0.073975	0.512451
24853		8.659390	5.613998	3.758907	1.229443	3.531177	0.916390	-1.697266	0.093994	0.457764
24854		10.359658	4.583653	3.120157	0.628022	3.508030	1.030925	-1.721436	0.116211	0.407227
24855		13.158213	2.228594	1.247144	-0.549487	3.543429	1.127009	-1.740967	0.129639	0.354980
24856		18.174460	-1.322650	-2.090312	-1.682431	3.530752	1.279405	-1.762939	0.149414	0.308838
24857		28.606783	-6.428277	-5.457481	-1.871829	3.273651	1.836599	-1.776611	0.182861	0.260498
24858		36.701761	-11.287332	-7.194310	-1.139884	3.532721	2.414303	-1.787842	0.220703	0.190186
24859		28.243276	-12.498425	-7.221536	0.948034	4.426233	1.323553	-1.796387	0.238525	0.107666
24860		22.666294	-11.523747	-6.765827	3.784273	3.754112	0.423787	-1.798340	0.256348	0.033691
24861		22.992161	-7.691758	-6.429060	4.953959	3.333535	0.596975	-1.808838	0.263184	-0.041992
24862		24.969265	-2.382327	-4.370334	5.164349	3.420785	1.033747	-1.800049	0.287842	-0.126709
24863		26.782927	1.009132	-1.820731	4.550266	3.490928	0.913531	-1.799561	0.290283	-0.208740
24864		28.031347	1.756274	-1.142943	3.188941	3.704949	0.652769	-1.777344	0.299316	-0.284180
24865		25.546350	-0.913278	-2.308499	1.528206	4.002216	0.515670	-1.761230	0.299561	-0.368164
24866		21.781342	-4.076046	-3.303713	0.834422	4.092901	0.414062	-1.736816	0.306396	-0.450195
24867		18.298511	-5.419845	-3.241891	0.749501	3.648887	0.461680	-1.709961	0.302246	-0.516602
24868		16.232861	-5.115037	-2.408370	0.749602	2.907598	0.414289	-1.680908	0.302490	-0.572266
24869		13.815266	-3.857413	-1.822967	0.569371	2.380138	0.392223	-1.658691	0.300293	-0.615234
24870		10.927967	-2.201063	-2.404909	0.373596	1.978274	0.331309	-1.641113	0.302734	-0.651855
24871		7.879989	-0.511932	-3.296905	0.295454	1.565228	0.212278	-1.614258	0.296143	-0.685791
24872		4.830376	0.780337	-3.621143	0.257701	0.960401	0.244425	-1.601074	0.296387	-0.692139
24873		1.764852	1.474544	-3.584845	0.044032	0.203475	0.288103	-1.594727	0.300781	-0.703125
24874		-0.884277	1.459319	-3.605459	-0.234850	-0.546583	0.442770	-1.594971	0.305176	-0.690186
24875		-3.550792	1.296747	-4.098411	-0.459694	-1.108745	0.712051	-1.586670	0.318359	-0.675293
24876		-6.657426	1.309596	-4.853601	-0.808237	-1.545455	1.074185	-1.587402	0.333984	-0.641357
24877		-11.757498	0.300802	-7.158840	-1.284553	-2.446579	1.315587	-1.588623	0.364746	-0.588379
24878		-18.973987	-0.849716	-11.761488	-1.919872	-4.438173	0.792261	-1.620361	0.377686	-0.496094
24879		-17.873604	0.603206	-12.066855	-2.902571	-5.833921	-1.052363	-1.656006	0.373047	-0.384277
24880		-6.429387	3.995090	-12.781620	-1.807992	-6.177351	-2.344116	-1.693115	0.334961	-0.280029
24881		2.968083	2.626582	-10.780868	1.213515	-5.500745	-2.435116	-1.708008	0.292725	-0.199219
24882		9.198730	-2.750353	-1.689571	1.846765	-3.995707	-1.768917	-1.720703	0.263672	-0.135986
24883		15.093353	-5.631598	8.924566	0.598429	-2.007177	-0.883103	-1.722900	0.261475	-0.123047
24884		22.863755	-8.470745	20.517202	1.130876	1.290684	-0.020006	-1.718262	0.259277	-0.168213
24885		29.587357	-13.137380	30.678894	3.981571	5.092474	1.000028	-1.704346	0.268555	-0.284912
24886		20.678920	-10.863038	28.883916	3.839011	4.787954	1.907825	-1.685059	0.299805	-0.343750
24887		11.446978	-5.727112	15.655783	2.165442	0.755582	2.367134	-1.675049	0.333008	-0.348877
24888		1.128252	-2.294833	10.158851	0.887332	-0.361469	2.565733	-1.671875	0.379639	-0.341553
24889		-8.626994	-1.552455	7.589321	-0.002801	-0.996342	2.366386	-1.670898	0.417236	-0.327393
24890		-14.497970	6.117831	-7.161191	-1.287512	-0.513274	2.435108	-1.661377	0.474854	-0.318115
24891		-12.837004	19.461572	-42.422719	-7.788167	1.853631	1.327446	-1.660156	0.505859	-0.306152
24892		-9.755594	28.271728	-29.342865	-7.699019	0.794229	-2.616236	-1.685791	0.468018	-0.260010
24893		4.245448	26.712431	-13.593946	3.607985	-1.070134	-3.766927	-1.707275	0.379395	-0.296631
24894		22.948011	20.291288	89.262674	23.368713	2.106070	-0.622100	-1.705811	0.350586	-0.362549
24895		21.696617	-8.844314	-14.324508	-20.891419	-6.472895	2.003289	-1.741699	0.454102	-0.052979
24896		37.421505	-16.918502	-73.957975	-21.298465	-9.029449	-0.095122	-1.757324	0.436035	0.035645
24897		31.641202	-14.234471	-31.754431	5.025805	9.399822	-1.130821	-1.748291	0.405518	-0.174805
24898		5.134469	-15.018739	2.253780	7.561142	4.439232	-1.080794	-1.745117	0.378906	-0.193359
24899		0.888131	-13.086209	11.673142	-1.603212	-3.769211	0.188842	-1.755127	0.398682	-0.105713
24900		3.669370	-6.398128	-13.189468	-3.480488	-3.203766	1.278244	-1.749512	0.411865	-0.036865
24901		4.537975	2.182276	-19.477995	-0.590526	-2.724088	-1.224249	-1.760010	0.376221	0.017822
24902		14.088220	2.199847	-14.582480	2.719115	-3.924353	-2.911232	-1.757080	0.327393	0.083984
24903		27.758596	-6.038747	-4.660627	3.720271	-3.362256	-2.078104	-1.756592	0.293945	0.134521
24904		31.853501	-13.141818	-1.202141	1.226967	-3.952284	-0.848702	-1.739502	0.287109	0.208252
24905		24.771651	-10.223377	-6.603859	0.602680	-4.103587	-0.650879	-1.722168	0.271729	0.269287
24906		19.263878	-6.100375	-6.101680	1.298582	-3.658648	-1.096814	-1.708984	0.251465	0.323975
24907		20.683419	-4.359747	-1.481035	1.500454	-3.499359	-1.129464	-1.693848	0.242676	0.369629
24908		22.230798	-3.062259	1.924416	1.479482	-3.289566	-0.565370	-1.667969	0.238281	0.421631
24909		20.261217	-1.836982	2.941999	0.585106	-3.302297	0.173545	-1.646484	0.242432	0.471436
24910		17.198297	-0.451894	3.301782	-0.098699	-3.146282	0.163319	-1.622803	0.238037	0.514893
24911		15.891650	2.463610	6.734895	0.011830	-3.384468	-0.188641	-1.594727	0.233643	0.569336
24912		14.301726	5.411814	12.327936	-1.183963	-3.796832	-0.088406	-1.566406	0.215820	0.624023
24913		10.999454	6.951472	13.304473	-3.478874	-3.842664	-0.193275	-1.541992	0.187012	0.685303
24914		8.232790	6.461592	9.226976	-5.746702	-3.485635	-0.338267	-1.519043	0.131348	0.736816
24915		6.859691	3.544636	4.991694	-6.452553	-2.618598	-0.890959	-1.504639	0.071533	0.773193
24916		6.535355	0.220835	4.794345	-5.532441	-1.250647	-1.371722	-1.492188	0.002930	0.788086
24917		6.203305	-1.069493	6.725047	-3.868240	0.067879	-1.379271	-1.486572	-0.036865	0.780518
24918		3.276706	-1.396451	7.995666	-1.933711	-0.040479	-1.302970	-1.483643	-0.070313	0.783691
24919		3.002905	-6.493297	8.723602	-0.927281	-0.488224	-1.170708	-1.480957	-0.090088	0.786377
24920		4.081222	-14.545151	9.144907	-1.396632	0.425137	-0.379774	-1.493408	-0.105713	0.767334
24921		4.133464	-16.569659	8.696859	-1.774344	1.523931	0.663675	-1.508545	-0.110107	0.748047
24922		2.968779	-11.166567	8.354442	-1.354234	2.180794	1.288403	-1.530273	-0.096680	0.712891
24923		0.536145	-5.377048	7.416282	-0.488215	2.304153	1.302492	-1.548096	-0.081299	0.682129
24924		-0.783083	-0.612962	4.321324	0.037191	2.341465	1.009072	-1.568115	-0.056885	0.650879
24925		0.353859	2.502089	2.131284	0.446842	2.461197	0.599305	-1.592041	-0.052490	0.618164
24926		2.220518	3.357569	3.082375	0.639107	2.706843	0.491864	-1.613770	-0.036865	0.578857
24927		4.453629	2.779036	4.443177	0.575020	2.937390	0.567837	-1.631348	-0.025635	0.541504
24928		6.747095	1.778844	4.820283	0.439678	3.083207	0.777790	-1.655518	-0.010254	0.500000
24929		8.689512	0.339203	3.434469	0.138619	3.233404	0.961007	-1.681885	0.009766	0.451660
24930		12.061849	-1.516172	0.075463	-0.470608	3.287329	1.150770	-1.705811	0.027588	0.409912
24931		18.977137	-4.125703	-3.491925	-0.626464	2.963020	1.720683	-1.719482	0.060791	0.365723
24932		30.264416	-8.535145	-6.622776	0.171223	2.493474	2.992166	-1.731689	0.123047	0.322998
24933		32.133013	-11.492529	-7.429894	1.320096	3.017777	3.584064	-1.743896	0.185059	0.269287
24934		22.511405	-10.713435	-5.661585	3.362040	3.698146	2.313930	-1.748779	0.229492	0.203369
24935		21.047566	-9.079143	-3.583719	5.678049	2.936037	1.165038	-1.757813	0.258545	0.135498
24936		25.976248	-5.036737	-3.148464	6.085808	2.846017	0.787162	-1.766602	0.285156	0.061279
24937		28.838969	0.457050	-1.917443	5.065845	3.286377	1.332472	-1.766846	0.312012	-0.012695
24938		30.185234	2.261015	0.115317	3.895605	3.456961	1.378545	-1.760254	0.341064	-0.091064
24939		29.852542	-0.793944	0.466474	2.633164	3.554972	1.105298	-1.755615	0.352295	-0.171143
24940		28.172032	-4.904950	-1.643383	1.367302	3.647650	0.970288	-1.733643	0.374756	-0.240479
24941		24.981578	-7.808765	-3.500860	0.875597	3.538041	1.123552	-1.718018	0.383789	-0.318359
24942		21.772801	-8.281659	-4.440085	1.137716	3.284681	1.007036	-1.698242	0.397217	-0.383301
24943		18.653402	-5.236255	-3.678239	1.556498	2.981213	0.779300	-1.678223	0.406250	-0.443604
24944		15.493421	-1.209190	-2.456172	1.605043	2.659776	0.754630	-1.649414	0.406494	-0.501709
24945		12.223154	1.458919	-2.424569	1.382800	2.242157	0.637637	-1.626953	0.400146	-0.548584
24946		9.030737	3.405696	-2.939507	1.135170	1.821864	0.373202	-1.602539	0.395752	-0.591309
24947		5.879795	5.069294	-3.396383	0.798349	1.469770	0.228016	-1.580322	0.389160	-0.621338
24948		2.374881	6.076338	-3.534504	0.264426	1.027416	0.222803	-1.566895	0.385010	-0.631836
24949		-0.895049	5.954851	-3.766322	-0.391812	0.498314	0.246381	-1.556152	0.391602	-0.642578
24950		-4.202168	5.028618	-4.481810	-1.044298	-0.086598	0.198829	-1.549805	0.398193	-0.636230
24951		-6.633350	4.312218	-5.366695	-1.699844	-0.614196	0.149532	-1.548096	0.413818	-0.621582
24952		-8.731746	3.720663	-6.162987	-2.396441	-1.042545	0.060102	-1.551025	0.427002	-0.583252
24953		-11.530674	2.619642	-6.961732	-2.904333	-1.599079	-0.119316	-1.560303	0.435791	-0.544678
24954		-15.138267	0.770097	-8.591619	-3.123306	-2.421579	-0.331263	-1.578369	0.439941	-0.482422
24955		-16.346146	-1.586732	-9.323501	-3.077237	-3.218092	-1.067547	-1.600586	0.430908	-0.417725
24956		-10.872287	-1.528152	-11.058788	-1.428507	-3.421468	-2.182324	-1.633057	0.401855	-0.358887
24957		-2.318222	0.099969	-12.697261	1.831378	-3.584902	-2.549443	-1.651855	0.355225	-0.306152
24958		4.930407	-2.455901	-7.762702	3.790952	-3.478334	-1.679437	-1.675293	0.321777	-0.260010
24959		9.760771	-5.728461	0.250015	2.828971	-3.180982	-0.515374	-1.675537	0.314941	-0.212402
24960		14.384860	-8.064703	9.902713	0.462049	-2.122016	0.305180	-1.691406	0.328125	-0.182861
24961		22.716442	-11.322557	21.431332	-1.000031	0.529680	1.050348	-1.685303	0.354736	-0.213623
24962		31.412659	-13.445705	33.299378	1.964035	5.251573	1.071350	-1.665039	0.361816	-0.308594
24963		23.830567	-5.992535	23.945723	2.220511	2.561994	1.474507	-1.654541	0.381836	-0.334961
24964		14.094901	-3.843161	14.942057	0.933725	0.257565	2.084709	-1.644531	0.417236	-0.346680
24965		-1.598606	-6.348884	10.109653	1.366636	0.208914	1.415810	-1.648926	0.428467	-0.355469
24966		-15.185100	-4.733439	4.945553	3.423039	-1.075814	0.647173	-1.651611	0.441650	-0.345215
24967		-17.638321	9.323180	-22.353920	-2.288260	-0.672125	1.394302	-1.648438	0.479248	-0.335449
24968		-10.465402	15.789544	-46.911402	-7.864427	2.870549	-1.672714	-1.663330	0.463623	-0.315674
24969		2.007989	19.660644	-28.500915	-3.289896	-1.001254	-3.188863	-1.683594	0.406006	-0.314209
24970		45.669967	20.919441	74.459692	23.931721	1.814370	0.792826	-1.669189	0.390869	-0.432373
24971		28.376029	2.379555	11.596047	-10.621132	-3.980783	3.790655	-1.693359	0.485596	-0.202393
24972		18.948117	-5.118920	-63.290580	-15.349296	-9.498820	-0.570311	-1.711670	0.469727	-0.057617
24973		23.469099	-2.672145	-34.216088	-1.827807	5.001306	-2.499410	-1.713867	0.434570	-0.203125
24974		4.261807	-8.175376	-3.526130	3.447230	8.473448	-0.755579	-1.703369	0.408203	-0.312500
24975		-11.371243	-8.886660	12.661875	0.019936	-0.925795	-0.816591	-1.715088	0.412354	-0.228516
24976		-4.544656	-7.564097	-12.977303	-4.897918	-4.829218	0.069752	-1.729004	0.407715	-0.131348
24977		4.904838	-7.223829	-17.844208	-1.229344	-3.288257	-1.564055	-1.741699	0.372070	-0.072266
24978		19.372095	-10.199953	-13.124029	2.423744	-4.298042	-2.764934	-1.749756	0.325439	0.006592
24979		45.757027	-17.035041	-5.601041	2.881352	-5.035934	-0.235816	-1.735596	0.340576	0.090332
24980		40.978508	-15.367191	-5.724901	1.148716	-4.036795	0.953982	-1.727539	0.347168	0.146240
24981		20.581856	-9.460004	-9.442626	2.215613	-3.582269	-0.566074	-1.716797	0.336182	0.198486
24982		13.820448	-4.187717	-5.774429	2.813057	-3.815584	-0.989037	-1.701416	0.320557	0.246582
24983		15.721591	0.925579	-1.295393	2.628018	-4.064442	-0.840837	-1.682129	0.315918	0.307373
24984		18.259983	5.144732	1.498613	2.297159	-4.212473	-0.566212	-1.654053	0.313721	0.367920
24985		21.775912	7.647006	3.590526	0.979774	-3.907060	-0.259103	-1.634766	0.309082	0.422363
24986		23.380464	6.157474	4.918256	-0.641556	-3.287648	-0.095690	-1.615234	0.295898	0.472412
24987		20.406421	1.819521	8.185435	-1.842478	-3.376383	-0.081379	-1.593262	0.278076	0.524902
24988		14.650429	1.650748	12.012040	-3.894011	-3.696007	0.120859	-1.564941	0.255859	0.596924
24989		10.937909	4.561340	12.312230	-5.890513	-3.954213	0.327515	-1.536133	0.215820	0.665283
24990		9.330734	4.520159	8.384441	-7.278011	-3.465828	-0.114278	-1.508789	0.160400	0.723145
24991		7.949057	1.628478	2.227307	-7.187137	-2.225539	-0.685430	-1.498535	0.091553	0.750977
24992		6.323597	-0.668688	2.894357	-5.481600	-0.833371	-1.017034	-1.488281	0.033936	0.761475
24993		4.139918	-2.805250	10.939374	-3.535913	-0.087087	-1.139692	-1.487305	-0.003662	0.760254
24994		-1.088054	-6.125405	9.518289	-1.629035	-0.531152	-1.521355	-1.482178	-0.034668	0.767578
24995		-0.811792	-15.317232	10.203695	-0.898383	-0.301872	-1.385694	-1.485596	-0.067871	0.762207
24996		4.573733	-19.453182	11.279422	-1.211161	0.898930	0.085475	-1.496582	-0.061279	0.746582
24997		7.059425	-11.868714	9.388497	-1.154662	2.072157	1.290673	-1.516602	-0.041260	0.709229
24998		3.030004	-6.086992	6.599953	-1.072381	2.687766	1.425339	-1.536133	-0.025879	0.669922
24999		-0.679154	-1.242474	3.825473	-0.485757	2.663851	1.212591	-1.560303	-0.016846	0.643555
25000		-0.705594	2.593923	2.907515	0.451338	2.523398	0.735748	-1.577881	0.000977	0.601807
25001		1.021851	4.868691	3.981246	1.049255	2.624725	0.443824	-1.597656	0.011963	0.564697
25002		2.940075	5.680920	4.899654	1.012911	2.967815	0.340913	-1.621338	0.016357	0.525391
25003		4.980203	5.306862	4.709540	0.600435	3.181767	0.502136	-1.638916	0.036377	0.481445
25004		6.752142	3.492884	4.091030	0.342046	3.201439	0.750554	-1.667236	0.047607	0.433594
25005		8.186420	1.305251	3.512656	0.145794	3.260609	0.891732	-1.684814	0.067627	0.381104
25006		10.810726	-0.417474	1.834605	-0.363873	3.238988	1.042598	-1.702393	0.080811	0.339355
25007		16.025090	-2.451834	-1.868444	-0.916227	3.153000	1.380194	-1.724365	0.103027	0.297607
25008		24.670113	-5.933091	-5.429820	-0.679175	2.901654	2.098253	-1.736328	0.147461	0.253174
25009		33.336016	-10.163170	-6.816405	0.322008	2.894656	3.039021	-1.741455	0.196289	0.204346
25010		28.854539	-10.438114	-5.922781	1.623819	3.725939	2.452306	-1.754883	0.236328	0.127441
25011		23.706381	-8.665839	-4.143506	3.621555	3.494186	1.186325	-1.755127	0.260986	0.066406
25012		24.680359	-5.798936	-2.838036	4.647566	3.137061	0.558921	-1.761230	0.270020	-0.007080
25013		27.080959	-2.266405	-1.280735	4.106495	3.559246	0.894819	-1.759277	0.296631	-0.085449
25014		27.259934	-0.647327	0.250678	2.924986	3.758570	1.220205	-1.750000	0.308105	-0.165527
25015		26.458161	-1.658927	0.084201	1.799936	3.584252	0.958657	-1.736816	0.325928	-0.239258
25016		24.250297	-4.336433	-1.883991	0.949712	3.543737	0.757840	-1.723389	0.332764	-0.306152
25017		20.675265	-6.589018	-3.351980	1.090069	3.561581	0.731254	-1.707764	0.339600	-0.373047
25018		17.620518	-6.962830	-3.241452	1.383603	3.130920	0.681648	-1.683350	0.344238	-0.437744
25019		16.264871	-5.078081	-2.205760	1.218591	2.394179	0.577307	-1.663330	0.351074	-0.478760
25020		15.075413	-3.180004	-1.924099	1.090784	1.881352	0.509869	-1.643555	0.353516	-0.521729
25021		12.938715	-1.512199	-2.049887	1.029750	1.667177	0.403138	-1.627686	0.349121	-0.558105
25022		10.325739	0.011247	-2.437198	0.752378	1.492169	0.367137	-1.607910	0.349121	-0.590088
25023		7.389830	0.884953	-2.943565	0.423525	1.145172	0.372947	-1.590088	0.344971	-0.611572
25024		4.859277	1.810402	-3.549978	0.133282	0.694606	0.427116	-1.579346	0.353760	-0.618164
25025		1.915533	2.226497	-4.059208	0.001117	0.198925	0.490730	-1.568359	0.358398	-0.631104
25026		-0.723075	2.765295	-4.012721	-0.172754	-0.333490	0.589060	-1.562256	0.371582	-0.620605
25027		-3.603971	3.201517	-4.150622	-0.550331	-0.829089	0.688299	-1.551758	0.387207	-0.607910
25028		-6.484612	3.948063	-4.816143	-1.010555	-1.325762	0.709092	-1.563477	0.398193	-0.573730
25029		-10.159074	4.222072	-5.555072	-1.633127	-1.997886	0.621440	-1.564209	0.413574	-0.533203
25030		-14.470004	5.270059	-8.364072	-2.652658	-3.248165	0.279256	-1.589111	0.426514	-0.460693
25031		-15.102108	6.635261	-9.818490	-4.154851	-4.126727	-0.621215	-1.607178	0.426270	-0.374512
25032		-8.811558	3.463715	-9.097958	-2.956802	-4.216150	-1.971577	-1.635742	0.399414	-0.291992
25033		-1.505837	-2.146718	-8.999587	0.167251	-4.128222	-2.625072	-1.654785	0.357178	-0.228516
25034		4.727554	-9.089807	-4.942423	2.315147	-3.582350	-2.278310	-1.676025	0.317139	-0.177979
25035		10.755764	-12.687304	3.970597	1.638648	-2.894469	-0.938035	-1.682861	0.314697	-0.134766
25036		19.339415	-13.391243	19.642200	-1.315060	-1.308988	0.587389	-1.678955	0.330322	-0.124512
25037		35.131201	-18.360766	31.051716	-1.477165	4.417984	1.923642	-1.663818	0.368164	-0.229004
25038		29.888243	-13.350732	23.488272	3.826234	4.873596	2.359675	-1.646729	0.401611	-0.294434
25039		19.478583	-9.782194	13.612291	5.449447	0.989295	3.079927	-1.629639	0.432861	-0.335938
25040		2.727754	-10.025617	10.548370	5.008313	0.229114	2.453120	-1.621338	0.455078	-0.351807
25041		-12.184524	-5.407768	9.603234	3.891382	-1.099672	1.720683	-1.619873	0.479492	-0.345947
25042		-15.473140	9.338206	-29.466819	-3.717085	-0.376483	2.245453	-1.617188	0.534668	-0.317139
25043		-22.437963	24.033348	-45.088158	-10.652185	1.297294	-0.461926	-1.626465	0.541260	-0.267822
25044		-14.150771	34.461655	-34.876928	-6.632873	-1.079776	-4.328969	-1.659912	0.468018	-0.218750
25045		14.463377	23.415363	-1.037571	20.477772	0.027054	-2.712009	-1.653076	0.353027	-0.416016
25046		16.387736	28.043712	108.556180	6.924965	3.548722	2.874891	-1.669678	0.452637	-0.298096
25047		20.940975	-11.656388	-71.933300	-24.109120	-14.465067	1.658683	-1.693359	0.493896	0.039063
25048		54.786186	-11.827112	-54.260315	-5.660017	-0.517745	-1.079269	-1.698242	0.474121	-0.087646
25049		25.507940	-6.389653	-12.534899	7.518338	10.219873	-1.014800	-1.687500	0.443604	-0.241943
25050		4.475833	-11.764087	18.769758	0.217051	0.701988	-1.255213	-1.696289	0.425537	-0.178955
25051		2.469488	-9.839612	-5.755816	-4.661985	-4.018697	0.174588	-1.703857	0.443115	-0.104248
25052		1.121863	-3.435894	-15.445947	-2.770499	-1.576241	0.231541	-1.699707	0.438721	-0.062988
25053		3.804394	-1.619653	-13.950802	0.110857	-3.055925	-1.369835	-1.710449	0.405273	0.004639
25054		14.733828	-7.010719	-9.492646	2.229377	-3.886511	-1.879395	-1.709961	0.371826	0.059570
25055		27.570033	-14.659017	-3.967990	1.528144	-3.411221	-1.002725	-1.701660	0.367432	0.115723
25056		30.750466	-14.178137	-4.181571	1.029092	-4.142909	0.087741	-1.695557	0.362793	0.182861
25057		25.015718	-10.587473	-6.202401	1.470489	-3.845830	-0.472651	-1.676025	0.351563	0.237305
25058		21.227801	-6.939974	-4.353029	1.961163	-3.280220	-0.944170	-1.669434	0.340332	0.276611
25059		20.026492	-3.286088	-0.697754	2.592246	-2.890637	-1.037088	-1.651855	0.329346	0.313721
25060		19.146659	1.019194	3.745189	2.574186	-2.920874	-0.700292	-1.632568	0.327148	0.350586
25061		18.465106	3.977431	7.587305	1.181029	-3.388924	-0.258599	-1.621826	0.324707	0.398193
25062		18.934432	4.152036	8.394147	-0.498464	-3.610891	-0.201799	-1.587158	0.311523	0.459229
25063		17.932364	4.078965	11.495930	-1.961371	-3.653784	-0.206438	-1.569580	0.291504	0.513916
25064		14.845879	5.080691	11.721808	-4.171337	-3.518418	-0.101406	-1.547607	0.264648	0.575439
25065		11.585114	6.537614	9.968222	-5.449738	-2.850533	-0.151602	-1.531494	0.222656	0.624268
25066		7.917253	5.142323	3.424469	-5.857507	-1.990495	-0.476300	-1.517334	0.173828	0.662354
25067		5.041538	0.369993	-2.006170	-5.135447	-1.367756	-1.031915	-1.514160	0.129395	0.676514
25068		3.626734	-4.184253	2.268107	-3.656240	-0.786819	-1.496222	-1.504150	0.078369	0.693115
25069		1.140686	-8.545855	8.340417	-2.372223	-0.608641	-1.788944	-1.505371	0.034180	0.698730
25070		-0.803269	-11.639569	9.855848	-1.213525	-0.598214	-1.619236	-1.500244	0.005371	0.706055
25071		1.253633	-12.083137	11.460586	-0.477724	-0.198287	-0.895299	-1.495850	0.000732	0.708252
25072		4.524172	-8.423187	10.443285	-0.228349	0.710801	0.183667	-1.510986	0.003174	0.690918
25073		4.017630	-3.714425	7.579547	-0.228321	1.517406	0.703298	-1.526123	0.009766	0.666748
25074		1.065375	-0.401527	6.009294	-0.185843	1.882090	0.675226	-1.537354	0.022949	0.640381
25075		0.467293	2.155284	5.993088	0.031709	2.000300	0.491062	-1.548096	0.027588	0.609863
25076		1.754998	3.501366	5.711465	0.101076	2.229959	0.179346	-1.572021	0.029785	0.581543
25077		3.276818	4.424839	5.055359	0.104020	2.525817	0.084898	-1.591553	0.034180	0.551025
25078		4.573692	4.812644	5.029434	0.170114	2.846213	0.168403	-1.606445	0.038574	0.503418
25079		5.397612	4.180738	5.129286	0.204367	3.090460	0.348648	-1.625977	0.043213	0.464355
25080		6.124252	2.690481	4.947062	0.024328	3.221506	0.525939	-1.649658	0.047607	0.414307
25081		7.472068	0.293506	3.422332	-0.539594	3.274405	0.661990	-1.671387	0.058838	0.372803
25082		10.415243	-2.626231	-0.197183	-1.387765	3.328085	0.772677	-1.693115	0.065430	0.316162
25083		16.077379	-6.096213	-4.464511	-1.754949	3.204287	1.160922	-1.708496	0.083252	0.285400
25084		27.767640	-11.189018	-6.944773	-0.685383	2.637652	2.360401	-1.716064	0.129883	0.245117
25085		35.563461	-15.230957	-6.675118	0.984101	2.713931	3.670930	-1.723877	0.194336	0.189453
25086		24.558184	-12.362615	-5.004707	2.994764	3.821291	2.424109	-1.732910	0.234375	0.114990
25087		19.704213	-8.235508	-2.870962	5.421375	3.159966	0.994536	-1.741699	0.252197	0.047363
25088		22.936005	-4.189688	-1.506124	6.073531	2.870948	0.487637	-1.739258	0.263428	-0.013184
25089		26.548285	-0.137115	0.082499	4.934728	3.455192	0.794519	-1.739014	0.279053	-0.095703
25090		28.147464	0.864813	0.520482	3.759540	3.621130	0.968369	-1.732178	0.290283	-0.171387
25091		28.678221	-0.727196	0.770631	2.232207	3.583235	0.843405	-1.727539	0.303711	-0.245117
25092		26.851398	-3.578965	-0.576269	1.184711	3.763024	0.702814	-1.713867	0.308350	-0.322754
25093		23.416148	-5.728604	-1.762044	1.062214	3.545363	0.649824	-1.687256	0.315430	-0.387207
25094		19.602642	-7.122881	-2.648977	1.073023	3.018931	0.498418	-1.675781	0.311035	-0.445313
25095		16.957537	-5.958395	-2.093821	1.204847	2.650936	0.260713	-1.653564	0.315674	-0.494873
25096		14.338205	-3.625203	-1.507997	1.052330	2.345568	0.159422	-1.629150	0.311279	-0.543945
25097		11.623256	-1.307673	-1.707089	0.844981	1.851338	0.079787	-1.615479	0.304932	-0.578369
25098		8.999877	0.952881	-2.284486	0.702819	1.290633	0.131484	-1.599609	0.293945	-0.601563
25099		6.782652	2.712614	-2.204005	0.307606	0.756098	0.251591	-1.584229	0.296143	-0.623047
25100		4.690505	3.889710	-2.457494	-0.286005	0.332016	0.302808	-1.571289	0.305176	-0.625244
25101		2.078416	4.787113	-2.900499	-0.920707	0.042914	0.313091	-1.567139	0.313965	-0.625488
25102		-0.648623	4.972374	-3.858002	-1.422034	-0.288308	0.270848	-1.558594	0.318359	-0.619141
25103		-2.732306	4.989819	-3.991623	-1.809231	-0.781509	0.244615	-1.561523	0.336182	-0.600098
25104		-4.939541	4.675882	-4.004170	-2.259332	-1.367435	0.185419	-1.566406	0.347168	-0.563721
25105		-7.610553	3.631923	-4.546802	-2.643280	-1.921676	0.030115	-1.575928	0.360352	-0.525391
25106		-11.119657	1.737218	-6.325789	-2.805052	-2.607424	-0.259277	-1.596191	0.368896	-0.467773
25107		-14.319393	1.449306	-8.966474	-2.771287	-3.545072	-0.869977	-1.607422	0.359863	-0.398438
25108		-12.627562	1.637441	-8.093209	-2.683172	-3.818640	-1.815771	-1.642334	0.333008	-0.326904
25109		-5.508781	0.866892	-7.657253	-0.025258	-3.835604	-2.519043	-1.661377	0.286377	-0.265381
25110		2.666700	-1.871773	-7.863623	3.849019	-3.313139	-2.486280	-1.679932	0.235107	-0.225342
25111		9.458385	-7.207646	-1.154038	4.523132	-2.850473	-1.412069	-1.688477	0.215088	-0.181885
25112		15.127776	-10.824348	8.288865	1.095710	-2.978788	0.097523	-1.691406	0.228271	-0.128174
25113		32.002417	-14.350244	23.414872	-2.673890	0.376882	1.879052	-1.683594	0.270508	-0.172363
25114		35.608167	-16.252945	28.591925	0.619113	7.001065	2.025557	-1.665527	0.290771	-0.295898
25115		25.357761	-8.638547	20.927713	3.441330	4.344751	2.062374	-1.646240	0.324219	-0.356934
25116		8.675003	-9.165171	17.890684	2.725753	1.974048	2.410985	-1.635742	0.348633	-0.394287
25117		-10.901752	-5.630169	16.366949	1.917948	-0.523841	1.384591	-1.638428	0.364258	-0.377441
25118		-18.772291	7.284395	-9.761738	-3.428959	-0.259598	1.201765	-1.639648	0.406250	-0.363525
25119		-19.815451	21.999170	-38.692543	-7.641275	1.430009	-0.900710	-1.646240	0.401855	-0.350342
25120		-5.835354	24.950712	-23.211758	-5.356729	0.050396	-3.707081	-1.669189	0.350586	-0.321289
25121		11.119727	18.066471	-13.669727	6.982272	-0.918618	-1.855937	-1.682617	0.293213	-0.358643
25122		19.854207	20.026582	51.855059	13.394803	-0.030893	1.456475	-1.687500	0.310791	-0.335449
25123		12.843243	-13.519981	-19.480283	-16.826589	-6.221003	1.184468	-1.710449	0.365723	-0.130127
25124		27.746439	-12.692105	-44.035064	-9.795449	-4.962892	-1.010500	-1.723389	0.345459	-0.093018
25125		26.280975	-12.060590	-24.354324	1.222847	5.487702	-1.455948	-1.719238	0.317139	-0.215088
25126		11.463907	-7.209585	5.395214	5.468906	3.987881	-0.675595	-1.714355	0.297119	-0.231689
25127		5.629907	-2.448501	2.902129	-2.290571	-3.550871	0.236976	-1.721924	0.312500	-0.141602
25128		8.588526	-1.969809	-13.293275	-2.299361	-3.283316	-0.490289	-1.725830	0.281250	-0.093506
25129		11.993090	-2.958151	-12.285115	0.568479	-2.214701	-2.645143	-1.731689	0.234619	-0.044678
25130		20.567939	-6.942211	-6.710502	1.656266	-3.568438	-2.477532	-1.733154	0.192383	0.016846
25131		28.221877	-12.780531	-3.799284	0.711435	-4.079056	-1.068645	-1.727051	0.181152	0.096924
25132		23.584331	-10.775841	-6.761548	0.705047	-4.174764	-0.542424	-1.718750	0.172119	0.168457
25133		17.766623	-7.682331	-7.529126	1.316934	-4.144020	-0.961643	-1.703369	0.154297	0.229492
25134		18.430309	-6.609934	-4.436427	1.416640	-3.932720	-1.579615	-1.692383	0.132080	0.292969
25135		23.225068	-6.423746	-0.796505	1.457163	-3.718513	-1.654460	-1.670166	0.103027	0.347900
25136		25.598494	-4.214761	1.874514	1.664949	-3.622224	-0.680503	-1.646729	0.107422	0.399658
25137		21.293455	-0.824374	3.917464	1.234845	-3.453301	0.089762	-1.623291	0.109619	0.451660
25138		18.478685	-0.533381	4.244139	0.891206	-3.705503	-0.317335	-1.597412	0.109619	0.505859
25139		18.545797	1.069301	6.959260	0.680335	-3.459680	-0.609623	-1.575684	0.103027	0.547119
25140		14.197235	3.893892	10.358612	-0.634585	-3.325607	-0.669365	-1.551758	0.087402	0.595459
25141		9.171547	5.168545	12.210649	-2.790631	-3.775660	-0.598353	-1.525146	0.053955	0.652588
25142		6.993097	4.628909	10.762494	-4.659311	-3.633096	-0.825393	-1.497803	0.003174	0.695313
25143		5.705957	3.012496	7.371528	-5.500837	-3.138816	-1.074293	-1.479248	-0.050049	0.735840
25144		5.480110	0.857904	4.837328	-4.536956	-1.997774	-1.322220	-1.465088	-0.103271	0.756836
25145		5.164009	-0.716017	6.748403	-3.036699	-0.858597	-1.279143	-1.457520	-0.138672	0.757813
25146		4.219085	-1.645666	10.022893	-1.589128	-0.261251	-0.951446	-1.459229	-0.158691	0.751953
25147		1.592905	-4.162379	9.757979	0.041597	-0.335033	-0.854881	-1.454590	-0.163086	0.760742
25148		1.438424	-10.036685	11.144064	0.179287	0.325812	-0.420599	-1.454346	-0.172119	0.750244
25149		3.733661	-12.226658	11.509674	-0.526894	1.461332	0.531990	-1.476318	-0.163086	0.726074
25150		5.305235	-7.169992	10.972805	-0.870477	2.456199	1.082553	-1.500244	-0.149902	0.682373
25151		3.124834	-2.535811	8.408342	-1.156720	2.868061	1.032108	-1.526123	-0.154297	0.643311
25152		1.319841	0.348022	5.771312	-1.046351	2.772451	0.752224	-1.545654	-0.143066	0.608154
25153		1.822507	1.986871	3.357083	-0.693530	2.730476	0.617891	-1.565186	-0.136475	0.571289
25154		2.915021	2.721829	2.581733	-0.416797	2.942261	0.606894	-1.591309	-0.134277	0.530029
25155		4.425407	2.559598	3.177611	-0.123561	3.112419	0.840185	-1.615234	-0.118652	0.488281
25156		6.037330	1.897109	4.064159	0.135650	3.275973	1.105309	-1.643799	-0.098633	0.446533
25157		7.390233	0.807266	3.642194	0.124918	3.289375	1.258710	-1.667969	-0.085449	0.400635
25158		10.164362	-1.357150	1.312104	-0.258475	3.135897	1.334858	-1.685547	-0.065430	0.356689
25159		15.570942	-4.543287	-2.241465	-0.743465	2.971530	1.618408	-1.707764	-0.038818	0.314697
25160		25.322904	-9.693807	-6.533899	-0.399259	2.590568	2.474384	-1.719727	0.014404	0.278564
25161		36.766223	-15.481401	-8.693811	0.831013	2.433016	3.846505	-1.734375	0.083252	0.233398
25162		29.942956	-15.500517	-9.032711	2.595869	3.619384	3.092930	-1.746094	0.136719	0.162842
25163		22.474532	-12.678978	-6.944407	5.622791	3.300694	1.365547	-1.757324	0.165527	0.105713
25164		25.928464	-8.229301	-4.559342	7.088685	2.734934	0.492537	-1.763672	0.183350	0.036133
25165		29.966118	-0.839995	-2.129386	6.309861	3.507151	1.118946	-1.763916	0.214600	-0.051025
25166		30.199642	5.151337	1.029267	4.444535	3.851331	1.593739	-1.757324	0.237061	-0.126953
25167		28.808125	3.850547	1.118659	2.596128	3.561882	1.249284	-1.748535	0.259277	-0.200928
25168		26.655007	-1.773393	-1.137607	1.478332	3.845097	1.005910	-1.734863	0.266113	-0.278564
25169		22.695297	-6.566344	-3.017491	1.279670	3.735603	0.972718	-1.710693	0.281982	-0.356445
25170		20.141142	-8.272901	-4.136471	1.417910	3.147832	0.961795	-1.697266	0.291016	-0.419189
25171		18.108523	-6.503665	-3.148677	1.544233	2.607584	0.886056	-1.668457	0.293457	-0.468506
25172		15.616634	-3.529916	-2.409431	1.351863	2.201404	0.833309	-1.652832	0.298096	-0.518066
25173		11.721978	-1.360091	-3.203557	1.129699	1.943100	0.681527	-1.628662	0.304688	-0.569824
25174		8.103462	0.556923	-3.918442	0.994432	1.666401	0.486602	-1.608887	0.304932	-0.595459
25175		5.480758	2.269259	-4.118396	0.719681	1.168379	0.457105	-1.591064	0.304932	-0.616943
25176		2.970451	4.024952	-4.355191	0.180905	0.639969	0.622712	-1.575928	0.311768	-0.636230
25177		-0.300207	4.861623	-5.015861	-0.236200	0.230470	0.731758	-1.567383	0.320557	-0.634277
25178		-3.320717	4.872325	-5.805908	-0.399939	-0.241065	0.700062	-1.554688	0.336182	-0.634521
25179		-5.803922	4.916404	-6.362446	-0.524483	-0.814579	0.696647	-1.557129	0.344971	-0.617676
25180		-8.424055	4.989856	-7.021524	-0.887804	-1.342275	0.553308	-1.555664	0.355957	-0.589844
25181		-11.632235	4.485349	-8.384602	-1.109879	-1.961720	0.193441	-1.569092	0.360352	-0.551270
25182		-15.160357	5.963604	-10.654038	-1.248709	-3.101843	-0.368561	-1.589355	0.362305	-0.491211
25183		-13.107385	9.363425	-8.940816	-3.341985	-3.783667	-1.199983	-1.611816	0.359863	-0.415771
25184		-7.059651	9.200562	-10.088280	-3.196573	-3.592729	-2.023817	-1.644287	0.330811	-0.335449
25185		-1.818427	3.621522	-11.117484	-0.115245	-3.337291	-2.498127	-1.663330	0.288574	-0.293457
25186		2.545956	-5.722639	-6.319625	2.094573	-2.769789	-2.534694	-1.679932	0.244141	-0.249268
25187		8.012724	-11.905895	1.957015	1.659915	-2.676494	-1.440921	-1.688721	0.232910	-0.201660
25188		14.013263	-13.587683	15.956156	-0.936473	-2.128492	0.190190	-1.696045	0.246094	-0.161133
25189		25.385515	-16.474158	32.590437	-4.487689	0.215764	1.857108	-1.686279	0.294922	-0.184082
25190		36.549030	-20.515720	31.308642	1.083876	4.781097	2.724453	-1.673340	0.330566	-0.266846
25191		27.733572	-12.481333	16.815813	5.909211	2.050790	3.322184	-1.650146	0.375000	-0.315186
25192		9.899244	-11.052098	10.925553	4.060114	0.929358	3.281839	-1.635742	0.419434	-0.340088
25193		-11.444419	-10.787806	10.627174	2.305247	-1.195036	2.611504	-1.643555	0.452637	-0.300049
25194		-18.287744	-4.888329	0.368368	-0.948435	-2.585379	1.480303	-1.642822	0.494629	-0.266846
25195		-15.573113	7.159657	-37.931643	-7.536320	1.268339	0.929477	-1.639160	0.519043	-0.248047
25196		-11.958878	29.077725	-39.800031	-7.391613	0.799619	-1.774487	-1.660645	0.496826	-0.217285
25197		8.362201	31.168122	-27.965594	6.339172	-0.327382	-3.275362	-1.672852	0.406006	-0.318604
25198		30.830588	34.107462	103.196847	24.122983	4.182420	0.122275	-1.669922	0.404053	-0.378906
25199		26.179641	-8.572597	-36.863122	-20.942692	-9.354751	3.242021	-1.692871	0.502930	-0.058350
25200		36.498280	-6.275830	-57.251706	-11.388242	-5.903844	-0.100283	-1.698975	0.489502	-0.053711
25201		21.840758	-2.064408	-29.455528	2.425310	8.804769	-1.573103	-1.696777	0.452393	-0.216553
25202		1.866562	-5.009793	9.922798	3.187322	5.112944	-1.339095	-1.697998	0.425781	-0.237305
25203		-2.233987	-6.116790	2.279924	-4.021682	-4.334502	-0.537569	-1.708008	0.436523	-0.123535
25204		4.751406	-4.644082	-15.325798	-3.684466	-3.534056	0.029601	-1.710449	0.429688	-0.067139
25205		8.299341	-2.913203	-16.323483	-1.461015	-2.602483	-1.743289	-1.720947	0.387451	0.005127
25206		19.134704	-7.778598	-12.621326	0.937387	-4.450085	-2.481129	-1.727051	0.351807	0.077148
25207		37.430871	-16.914359	-6.788447	1.065692	-3.896654	-0.478799	-1.716797	0.358398	0.141846
25208		32.947001	-18.925901	-7.099970	0.409099	-3.342157	0.296695	-1.699707	0.351563	0.193848
25209		20.268037	-13.342838	-5.306626	1.347746	-3.240327	-1.201938	-1.690674	0.327148	0.235596
25210		16.651205	-7.536137	-2.821350	1.245878	-3.574553	-1.290775	-1.670898	0.307129	0.299072
25211		16.819830	-3.391147	-1.065029	1.488070	-3.701179	-1.033034	-1.655762	0.295898	0.349121
25212		18.018803	-0.600993	2.124351	1.758992	-3.300243	-0.716667	-1.638428	0.293701	0.390381
25213		18.622735	-0.655282	5.139333	0.823919	-3.293246	-0.270494	-1.616699	0.284912	0.436035
25214		20.704859	-2.496851	7.872440	0.027057	-3.715995	-0.356136	-1.590820	0.275879	0.494873
25215		20.170561	-0.375624	11.671812	-0.789956	-3.774360	-0.189059	-1.562744	0.269287	0.549316
25216		14.426976	3.589492	14.813236	-2.678930	-3.650483	-0.070573	-1.540771	0.247070	0.606201
25217		9.967488	6.577948	12.487390	-4.308762	-3.550407	-0.232136	-1.516357	0.211426	0.665527
25218		7.683810	8.003611	7.276461	-4.269343	-2.650385	-0.584519	-1.495850	0.173828	0.697021
25219		6.954871	7.122674	5.220187	-3.616919	-1.170400	-1.038153	-1.494873	0.131592	0.711182
25220		5.521138	3.061356	9.366575	-3.620103	-0.313938	-1.239369	-1.495850	0.087158	0.712402
25221		3.284236	-1.312593	11.239285	-3.316091	0.154339	-1.398670	-1.494873	0.042969	0.718018
25222		1.865063	-5.499906	10.549883	-2.789949	0.187523	-1.287483	-1.502197	-0.001465	0.708252
25223		1.975019	-10.843481	10.068061	-2.844708	0.835561	-0.714004	-1.510254	-0.023438	0.689453
25224		2.865712	-11.842523	8.025653	-2.791622	1.800986	0.101199	-1.529297	-0.039063	0.668213
25225		2.142981	-9.095274	6.113917	-2.205053	2.406707	0.748729	-1.546631	-0.036865	0.624756
25226		0.109497	-6.483133	4.832451	-1.377378	2.594532	0.952614	-1.563965	-0.023438	0.587402
25227		-0.379297	-4.966964	3.699432	-0.618134	2.594094	0.847405	-1.579346	-0.014648	0.552490
25228		1.043585	-3.345430	3.040089	0.057805	2.725822	0.777697	-1.603271	-0.005615	0.513184
25229		2.715501	-1.270012	2.550378	0.753514	2.901743	0.853992	-1.621094	0.018799	0.473633
25230		4.046150	0.918356	2.780098	1.438584	3.048611	0.956998	-1.643066	0.043213	0.429443
25231		5.108066	2.434937	3.291260	1.900476	3.066634	1.071895	-1.663086	0.067627	0.387695
25232		6.065573	2.845309	3.509890	1.884076	3.056093	1.121774	-1.678467	0.089844	0.337402
25233		7.495142	2.408909	3.204259	1.491722	2.989567	1.147271	-1.694336	0.118652	0.297607
25234		10.577575	0.721615	1.670699	0.695920	2.892029	1.159574	-1.705566	0.143066	0.253662
25235		16.319171	-2.347963	-1.810231	-0.184223	2.779545	1.358691	-1.725586	0.169678	0.213867
25236		28.200286	-7.466400	-5.507815	-0.079975	2.358706	2.239955	-1.726563	0.216309	0.182373
25237		41.977999	-13.189027	-6.963966	0.892581	2.224415	3.806613	-1.725830	0.289551	0.135010
25238		31.999096	-11.897668	-6.516452	2.334463	3.738959	2.511066	-1.730469	0.322998	0.054199
25239		25.237973	-9.052393	-3.506229	5.132812	3.501350	0.506468	-1.745361	0.332031	-0.025879
25240		26.865980	-3.840339	-0.727363	5.175254	3.555912	0.422906	-1.733887	0.343262	-0.110352
25241		26.352799	0.808706	0.228922	3.824827	4.098239	1.176235	-1.720459	0.356934	-0.192627
25242		23.910598	1.619233	0.751128	2.814182	3.909845	1.224881	-1.711670	0.379150	-0.274902
25243		23.077214	-1.378397	0.982956	1.679827	3.609545	0.939019	-1.689453	0.388428	-0.348389
25244		21.378568	-5.656808	-0.556864	1.330461	3.442980	0.807230	-1.676025	0.397461	-0.417480
25245		19.249690	-8.011029	-1.685069	1.465842	3.072697	0.714708	-1.646973	0.395508	-0.481934
25246		18.201990	-6.209792	-1.642529	1.590326	2.560332	0.557977	-1.629150	0.395508	-0.535645
25247		16.530347	-2.779653	-0.942809	1.338007	2.106405	0.376938	-1.606689	0.386963	-0.573975
25248		13.988509	-1.284298	-1.600492	1.281110	1.737839	0.118873	-1.591064	0.384766	-0.608154
25249		11.144501	0.121769	-2.107554	1.094089	1.468620	-0.162051	-1.572998	0.371582	-0.640137
25250		8.620579	1.465967	-2.761141	0.624082	1.110798	-0.285731	-1.557129	0.358398	-0.665527
25251		6.187352	2.411189	-3.573102	0.143117	0.741539	-0.272376	-1.539551	0.354004	-0.676025
25252		3.675463	3.051976	-4.338735	-0.118294	0.410249	-0.186319	-1.532715	0.347412	-0.677734
25253		1.033573	3.401499	-4.918281	-0.320533	0.057217	-0.032895	-1.523926	0.343018	-0.681885
25254		-1.663718	3.140136	-5.227073	-0.414196	-0.371967	0.102160	-1.521973	0.351807	-0.671387
25255		-4.321101	2.986678	-5.166965	-0.758496	-0.810517	0.266857	-1.522217	0.356201	-0.656494
25256		-7.482191	2.974167	-5.706730	-1.356023	-1.315344	0.331319	-1.531494	0.364990	-0.630859
25257		-12.429482	2.915834	-6.435687	-2.100133	-2.104380	0.248200	-1.541260	0.386963	-0.575439
25258		-18.391679	8.226026	-9.322534	-4.191585	-3.646140	0.045015	-1.566650	0.411133	-0.494385
25259		-16.234910	11.466647	-11.770338	-6.139223	-4.169907	-1.037572	-1.591309	0.406494	-0.399658
25260		-7.072541	2.500204	-11.396293	-3.129808	-4.251033	-2.450873	-1.625977	0.377441	-0.323730
25261		-1.117641	-8.730578	-11.607440	0.783351	-4.183340	-3.098121	-1.646973	0.319580	-0.257568
25262		4.807065	-17.216054	-5.011464	2.807210	-3.968485	-2.382974	-1.670410	0.281738	-0.194336
25263		10.944674	-18.155994	7.559581	1.448417	-3.460735	-0.662498	-1.675537	0.285889	-0.140381
25264		23.780749	-17.005834	27.178729	-1.855795	-0.602879	0.973815	-1.673828	0.312744	-0.166992
25265		33.879455	-18.516135	36.896954	1.153831	6.686515	1.569479	-1.651367	0.328369	-0.288086
25266		24.970801	-10.386590	24.663867	5.068560	3.044083	1.855729	-1.640869	0.359619	-0.319092
25267		18.489679	-6.145340	16.030859	3.207471	-0.900363	2.667729	-1.637451	0.392822	-0.311279
25268		4.518134	-6.020297	14.572246	1.335431	-1.800761	2.295940	-1.640625	0.423828	-0.290527
25269		-5.275872	-4.275398	1.645060	2.115319	-1.236256	1.919013	-1.632813	0.457031	-0.284912
25270		-8.227704	11.857835	-25.423031	-1.968440	-0.667605	2.506320	-1.630371	0.516846	-0.260742
25271		-9.913012	24.443158	-42.201462	-9.812226	2.107252	0.398898	-1.626221	0.525635	-0.237305
25272		-6.052555	28.202228	-43.124350	-7.773124	2.174207	-2.290880	-1.638428	0.492432	-0.251465
25273		9.096847	9.037642	3.476444	23.197290	1.669814	-2.726298	-1.629883	0.329102	-0.492676
25274		13.543140	35.281976	79.700660	-5.401303	2.200160	3.043861	-1.647949	0.459229	-0.315430
25275		14.699104	-2.707331	-74.008682	-18.111144	-13.372663	-0.142521	-1.689941	0.471924	-0.048828
25276		35.461961	5.938116	-37.906142	-1.691625	-2.622564	-1.903530	-1.697266	0.443115	-0.108398
25277		22.595234	-7.027888	-11.042099	2.496363	9.071355	-1.364697	-1.684570	0.412598	-0.243408
25278		6.285177	-8.740941	14.855318	-1.217280	1.602655	-1.437905	-1.704102	0.392334	-0.184814
25279		8.183019	-5.356581	-7.174768	-5.406168	-5.256117	0.237506	-1.703125	0.409912	-0.079590
25280		13.480210	-5.300185	-16.172425	-3.922374	-2.919849	0.116994	-1.708008	0.403076	-0.023193
25281		17.311345	-8.498704	-12.755347	-0.505203	-3.164554	-1.215319	-1.708008	0.385254	0.041992
25282		23.146046	-15.572072	-9.113357	0.417765	-3.489496	-0.921185	-1.707764	0.358398	0.090088
25283		23.209212	-19.056298	-5.774658	0.004586	-3.008534	-0.278345	-1.695068	0.356201	0.157227
25284		18.084738	-16.041889	-5.641330	0.528991	-3.728618	-0.685753	-1.686279	0.340576	0.216064
25285		16.293773	-13.245529	-6.338205	0.985397	-3.937213	-1.631742	-1.670898	0.313965	0.270752
25286		17.313186	-10.805950	-4.885057	1.980269	-3.618148	-1.941073	-1.655273	0.287109	0.325684
25287		19.216693	-8.397564	-1.314049	3.044663	-3.568831	-1.372899	-1.642334	0.276123	0.373535
25288		20.728191	-4.154136	3.154930	2.967103	-3.613112	-0.253782	-1.623291	0.287109	0.418701
25289		21.779603	1.018767	6.639922	1.873403	-4.186251	0.284335	-1.593506	0.295898	0.474854
25290		23.767760	5.812793	9.524227	0.848072	-4.246838	0.225392	-1.570068	0.302490	0.531006
25291		19.890601	10.704059	12.896788	-0.934542	-3.610523	0.269107	-1.537354	0.289063	0.576904
25292		13.620341	13.273364	14.304196	-3.206017	-3.169305	0.100663	-1.515381	0.266846	0.635986
25293		8.985356	12.865518	11.504311	-4.924785	-2.561564	-0.124934	-1.499268	0.229248	0.676025
25294		7.053112	8.559714	3.712889	-5.652196	-1.599397	-0.545242	-1.491455	0.169189	0.703613
25295		5.913085	3.132705	2.471777	-5.389992	-0.632508	-1.160695	-1.492432	0.122803	0.709229
25296		4.581571	-1.483933	6.604824	-4.848720	-0.015637	-1.526127	-1.488770	0.062988	0.713135
25297		2.063813	-5.358572	9.053040	-3.968966	0.232021	-1.627079	-1.491455	0.005371	0.714600
25298		0.639507	-9.544779	8.509996	-3.005638	0.194320	-1.435779	-1.499512	-0.025879	0.706787
25299		1.679782	-13.959896	9.346024	-2.693373	0.581829	-0.732315	-1.498535	-0.052246	0.694580
25300		3.375810	-12.693687	8.068587	-2.218790	1.333386	0.385764	-1.515869	-0.054443	0.664307
25301		2.461317	-8.451428	6.158396	-1.243619	1.949535	1.009432	-1.531250	-0.045654	0.644531
25302		0.305172	-6.418092	5.297618	-0.323449	2.118781	1.058681	-1.546631	-0.027832	0.611572
25303		0.382279	-5.357777	5.512384	0.279927	2.242536	0.951141	-1.568604	-0.010254	0.582764
25304		1.822048	-4.211556	5.461277	0.590127	2.489027	0.847167	-1.588379	0.003174	0.547607
25305		3.333682	-2.491610	4.337028	0.885138	2.671740	0.854561	-1.606201	0.025391	0.514648
25306		5.029806	-0.495063	3.962849	1.438779	2.817979	0.944443	-1.626221	0.049805	0.474854
25307		6.291714	1.157702	4.920069	1.992660	2.903552	1.062238	-1.650635	0.078613	0.430664
25308		7.224773	1.798798	5.164596	1.941737	2.984368	1.115430	-1.668457	0.105225	0.382324
25309		9.417873	0.805572	2.575926	1.075070	2.992173	1.074194	-1.690430	0.127441	0.342529
25310		13.965991	-2.008481	-2.337752	0.101377	2.910046	1.192580	-1.704102	0.154053	0.302979
25311		22.609271	-6.225230	-6.361846	0.071924	2.500671	1.876981	-1.719971	0.189697	0.265137
25312		36.423400	-11.998472	-7.681641	1.348817	2.086173	3.458414	-1.723633	0.260742	0.228516
25313		32.502029	-12.910584	-7.113276	2.848246	3.262088	3.320930	-1.729004	0.318359	0.149170
25314		21.899073	-9.147008	-4.486760	5.393314	3.827293	1.036063	-1.732910	0.329590	0.069092
25315		23.688055	-5.429717	-1.880417	6.712444	3.113845	-0.165332	-1.736816	0.334229	-0.010986
25316		28.505186	0.872083	0.443563	5.268022	3.678609	0.359908	-1.738770	0.352295	-0.095459
25317		29.397417	5.077282	2.823377	2.961405	4.197544	1.171548	-1.731934	0.374512	-0.186768
25318		27.186594	2.731464	2.948020	1.204298	4.005905	1.081006	-1.714355	0.392578	-0.260254
25319		25.915509	-2.276230	0.733162	0.130541	3.567158	0.776052	-1.705566	0.403809	-0.318848
25320		23.613385	-6.898580	-2.796132	0.347881	3.191026	0.747741	-1.681152	0.410645	-0.387695
25321		20.431592	-8.841114	-4.017926	0.894964	2.894904	0.733260	-1.663330	0.419678	-0.443848
25322		17.593647	-7.107050	-3.363762	1.318026	2.529888	0.630771	-1.645264	0.415283	-0.493164
25323		14.602214	-4.060958	-2.621642	1.354597	2.147557	0.431267	-1.618652	0.415527	-0.542480
25324		11.418944	-1.616745	-3.151372	1.239187	1.784810	0.232956	-1.602783	0.406738	-0.585205
25325		8.675014	0.653361	-3.276264	1.032415	1.296607	0.102430	-1.589355	0.402588	-0.613037
25326		6.061891	2.223943	-3.474104	0.572396	0.826479	0.076707	-1.569336	0.391602	-0.629883
25327		3.723631	3.120290	-3.917687	-0.020099	0.458112	0.124675	-1.558350	0.393799	-0.634033
25328		1.113352	3.540464	-4.540651	-0.428490	0.125140	0.234515	-1.552002	0.400391	-0.636230
25329		-1.688990	3.610288	-4.991263	-0.678413	-0.248745	0.240047	-1.545654	0.404785	-0.632080
25330		-3.908311	3.325246	-5.419866	-0.883179	-0.679530	0.228477	-1.545898	0.411621	-0.619385
25331		-6.204711	2.969341	-6.533058	-0.989901	-1.060043	0.239015	-1.548340	0.416016	-0.597900
25332		-9.597727	2.454579	-7.523240	-1.009099	-1.466975	0.055673	-1.555420	0.429199	-0.568115
25333		-15.107565	1.555065	-10.030351	-0.763360	-2.600754	-0.297915	-1.573242	0.422363	-0.518555
25334		-15.614770	7.503785	-10.290942	-2.166330	-3.998027	-0.719825	-1.599854	0.415283	-0.438721
25335		-9.621699	10.542050	-11.317410	-3.373697	-3.805752	-1.553559	-1.628418	0.397461	-0.360840
25336		-2.656572	5.386506	-11.613413	-0.703031	-3.864834	-2.346422	-1.656494	0.361816	-0.295410
25337		2.061118	-4.614157	-8.352155	1.631490	-3.599946	-2.401746	-1.677734	0.319336	-0.240723
25338		6.715974	-11.633926	-0.677527	1.677857	-3.239543	-1.616840	-1.688477	0.294922	-0.184082
25339		12.194770	-14.519213	11.538762	0.315553	-2.199907	-0.387967	-1.701904	0.301514	-0.158447
25340		21.461967	-15.625442	30.379918	-2.005733	0.876879	1.057180	-1.693604	0.330322	-0.197998
25341		29.115306	-18.586446	38.753931	0.284104	6.119446	1.801178	-1.673828	0.357178	-0.289063
25342		24.801740	-10.725625	18.582827	4.503223	0.837935	2.493779	-1.668213	0.395020	-0.307373
25343		17.240389	-7.418035	11.580784	4.300496	0.044182	2.770544	-1.655762	0.428223	-0.325439
25344		-1.771968	-5.449556	16.532340	2.922147	0.183329	2.101927	-1.656250	0.446045	-0.330322
25345		-9.882768	0.325767	16.531166	1.340810	-2.620412	0.823138	-1.661621	0.474609	-0.287842
25346		0.581680	14.958713	-29.568273	-8.082267	0.519655	0.919859	-1.665039	0.510254	-0.269531
25347		3.660580	26.260535	-34.374745	-8.437585	2.760636	-0.814001	-1.669434	0.512451	-0.273926
25348		6.887577	30.316780	-39.455566	3.895893	0.155899	-1.386262	-1.682861	0.461426	-0.315918
25349		17.452036	24.314362	47.145090	15.924993	1.271769	-0.290533	-1.686035	0.432861	-0.377686
25350		5.819639	-11.222156	3.488782	-14.069625	-1.273799	-0.812716	-1.712402	0.465576	-0.210449
25351		11.091306	-8.163951	-40.831052	-12.400744	-6.638825	-1.687130	-1.741455	0.447510	-0.080811
25352		16.137065	-6.766888	-35.992544	-6.486383	0.802056	-1.764027	-1.745117	0.432129	-0.119385
25353		6.818883	-13.027363	-14.724752	2.247508	4.662397	0.556193	-1.735596	0.429932	-0.179688
25354		0.247455	-8.202321	5.891591	5.381233	-2.962058	0.843675	-1.741211	0.447510	-0.087402
25355		12.681868	-10.926377	-9.233639	-2.701275	-5.849678	1.118546	-1.738037	0.453857	0.016113
25356		32.308526	-12.749868	-12.510794	0.829743	-4.040783	-1.784840	-1.746338	0.418213	0.083740
25357		42.293800	-10.469174	-8.826432	2.206550	-4.139803	-1.701245	-1.741699	0.389404	0.142822
25358		27.601916	-9.731065	-6.586952	1.666332	-2.920025	-1.290670	-1.737061	0.369385	0.182373
25359		15.050770	-8.137037	-6.297327	2.041916	-3.259495	-1.683807	-1.729980	0.331543	0.243896
25360		11.696310	-4.437041	-3.764370	1.928750	-4.099491	-1.586584	-1.712646	0.315918	0.298340
25361		15.109398	-1.490259	-2.057444	1.550247	-4.125290	-1.656861	-1.701416	0.284668	0.368408
25362		23.001207	-0.751961	-0.636994	1.641739	-3.960015	-1.624053	-1.679688	0.271484	0.416260
25363		27.696470	-0.266515	1.262894	1.153704	-3.225186	-0.618659	-1.662354	0.266846	0.461914
25364		21.696072	1.833592	4.971181	0.167645	-2.689077	0.179466	-1.643066	0.264648	0.500977
25365		16.984339	0.743456	8.236374	0.014259	-3.436678	-0.221434	-1.614746	0.251221	0.553467
25366		16.042616	1.798140	11.835565	-1.120710	-3.485185	-0.040198	-1.593262	0.249023	0.601318
25367		12.372829	4.965411	10.986274	-3.238216	-3.019797	-0.028477	-1.564453	0.218018	0.649902
25368		8.323897	7.090536	8.618158	-4.497334	-2.390402	-0.297987	-1.552490	0.173584	0.683594
25369		6.045093	6.334335	5.305121	-5.173688	-1.716146	-0.649376	-1.542969	0.129150	0.712891
25370		4.666877	2.043090	2.295886	-4.890109	-0.936158	-1.130913	-1.532959	0.075928	0.727539
25371		3.942840	-2.544191	5.749964	-3.664134	-0.350457	-1.307801	-1.538330	0.033936	0.728516
25372		3.745896	-5.536412	12.044845	-2.642048	0.261045	-1.040754	-1.541748	-0.001465	0.718750
25373		2.818075	-7.832321	13.708424	-2.180807	0.917266	-0.604041	-1.540771	-0.028076	0.702148
25374		1.416160	-9.695765	9.977249	-1.584520	1.123871	-0.169115	-1.553467	-0.036865	0.687256
25375		2.093600	-9.544513	9.178954	-1.181340	1.363815	0.426325	-1.566650	-0.030273	0.658936
25376		3.497700	-5.503912	9.346486	-1.168024	1.848084	0.921206	-1.586182	-0.025879	0.636963
25377		3.040708	-1.546640	7.272233	-1.157000	2.206857	0.849144	-1.601318	-0.021240	0.600098
25378		2.605183	0.007631	5.600516	-1.085129	2.370500	0.591239	-1.627441	-0.019043	0.571533
25379		2.959072	0.505046	4.849930	-0.938082	2.483832	0.521323	-1.644531	-0.019043	0.532715
25380		3.493979	0.778803	4.674353	-0.589099	2.620061	0.558938	-1.666504	-0.008057	0.497559
25381		3.967212	0.957683	4.728646	-0.116069	2.765055	0.693094	-1.686035	0.000977	0.458252
25382		4.452420	0.792317	4.973121	0.182279	2.815795	0.771021	-1.714355	0.016357	0.420898
25383		5.745025	-0.224598	4.542783	-0.057816	2.807514	0.779603	-1.725342	0.027588	0.377441
25384		8.987651	-2.347262	1.436148	-0.753380	2.788324	0.686167	-1.749268	0.038574	0.342285
25385		15.138389	-5.680464	-3.245320	-1.408654	2.741291	0.878749	-1.766846	0.049805	0.302979
25386		29.759167	-11.746322	-6.971415	-0.794968	2.156122	2.116274	-1.787598	0.103027	0.275391
25387		42.338934	-17.416339	-8.222058	0.445360	2.108945	3.972817	-1.793457	0.176270	0.228027
25388		24.325509	-13.198706	-7.013721	2.539061	3.930958	2.125824	-1.806885	0.207520	0.147217
25389		17.891898	-9.402318	-4.738332	5.457326	2.899660	0.731574	-1.813477	0.227539	0.090576
25390		21.744395	-5.207994	-3.466401	6.319777	2.565747	0.510757	-1.817871	0.249756	0.020752
25391		25.265897	-0.006522	-2.951001	5.581957	3.211585	1.077170	-1.817871	0.272217	-0.059570
25392		26.587100	3.274875	-0.478057	4.591514	3.421930	1.478252	-1.811279	0.298828	-0.135742
25393		26.938082	1.756804	0.312337	3.330223	3.160785	1.200653	-1.806885	0.319092	-0.205322
25394		27.204564	-1.093753	-0.883658	1.915648	3.186209	1.015732	-1.791260	0.334717	-0.278809
25395		24.647728	-3.955304	-2.894616	1.389074	3.490518	1.130066	-1.775635	0.345947	-0.363281
25396		20.099141	-5.815833	-3.554210	1.271887	3.223005	1.029025	-1.758057	0.359619	-0.426025
25397		17.387765	-5.456519	-3.735048	1.337634	2.620250	0.847569	-1.733887	0.370850	-0.479980
25398		15.716397	-2.999243	-3.004316	1.298417	2.337256	0.729334	-1.711670	0.377686	-0.538086
25399		12.803079	-0.517692	-2.863927	0.966005	2.077073	0.698596	-1.685303	0.380127	-0.576660
25400		10.240103	-0.194243	-3.507955	0.721896	1.627703	0.544479	-1.658691	0.380127	-0.608887
25401		8.133982	-0.122273	-4.654210	0.328765	1.212307	0.449496	-1.641113	0.386963	-0.636963
25402		5.863325	0.425799	-5.879101	0.314915	0.927809	0.689183	-1.623779	0.391357	-0.656250
25403		2.488790	1.774024	-5.895980	0.551507	0.674671	1.006271	-1.613037	0.406982	-0.671631
25404		-0.761887	2.047486	-5.578870	0.690840	0.095766	1.082957	-1.589111	0.411621	-0.680176
25405		-3.423924	1.910034	-5.456309	0.791055	-0.702359	1.191578	-1.578613	0.420410	-0.663086
25406		-6.129194	1.835988	-5.744515	0.544973	-1.265449	1.164638	-1.579102	0.435791	-0.648438
25407		-9.926201	2.125577	-5.993308	0.032875	-1.780861	0.870445	-1.583740	0.440186	-0.616211
25408		-15.163093	4.635299	-6.966423	-0.997262	-3.055240	0.360824	-1.606689	0.457764	-0.545654
25409		-15.542751	10.632193	-8.719694	-3.730732	-4.334012	-0.629135	-1.640381	0.468506	-0.455811
25410		-8.380742	11.391264	-8.753188	-3.699597	-4.353626	-1.805483	-1.671143	0.441650	-0.366943
25411		-2.791714	5.270754	-8.913331	-1.512530	-4.273674	-2.352493	-1.697021	0.408203	-0.292969
25412		1.136887	-3.450064	-7.787720	0.613342	-3.519803	-2.665437	-1.726807	0.354736	-0.237793
25413		6.092676	-9.273915	-0.909864	1.485409	-2.460123	-2.157581	-1.735107	0.328125	-0.200439
25414		11.567557	-11.534952	10.240987	0.615017	-1.078722	-0.790870	-1.741699	0.325684	-0.187500
25415		21.045425	-11.528240	23.455061	-0.605102	1.727640	0.607595	-1.735107	0.341553	-0.243896
25416		29.464011	-11.336937	32.622896	0.515353	6.574365	1.570009	-1.710938	0.372803	-0.361084
25417		21.326725	-8.510250	22.834073	2.963970	3.516177	2.067790	-1.702393	0.401855	-0.409180
25418		16.562752	-6.090326	14.031111	3.832662	0.228229	3.125301	-1.687988	0.437256	-0.427246
25419		-0.005149	-7.585008	19.734979	3.142126	-0.496646	2.787101	-1.684814	0.477295	-0.419922
25420		-10.964729	-1.240799	6.698860	-2.994101	-1.875328	2.417473	-1.687012	0.547852	-0.365723
25421		-10.542992	11.143135	-38.209135	-10.784555	0.615950	2.174672	-1.682617	0.616699	-0.322266
25422		-9.503709	24.035712	-36.919689	-7.300069	1.994219	-1.593341	-1.701416	0.581055	-0.321533
25423		8.631384	20.205800	-13.349432	10.701683	-0.414595	-3.272082	-1.724365	0.483643	-0.411865
25424		24.969436	20.851135	55.450432	11.143539	1.154009	0.597272	-1.722900	0.512451	-0.395264
25425		24.582649	-10.478574	-21.294314	-13.791010	-5.457022	0.461186	-1.760498	0.547363	-0.202637
25426		27.757207	-5.207150	-32.991198	-6.329238	-4.151697	-1.045223	-1.777832	0.531738	-0.163330
25427		20.798354	-7.790881	-27.771295	-1.924071	4.051488	-1.791603	-1.774170	0.498779	-0.235840
25428		6.896170	-8.058783	-5.369978	0.496933	3.775678	-1.057191	-1.777832	0.480957	-0.259033
25429		-1.321424	-7.130724	-1.413276	-0.673114	-2.405369	-0.333464	-1.782959	0.483154	-0.187988
25430		3.786173	-6.671654	-11.317609	-1.751993	-4.054253	0.097833	-1.792236	0.478271	-0.103760
25431		13.204142	-9.273038	-13.474541	0.274359	-3.712939	-1.063083	-1.807373	0.451660	-0.036377
25432		26.765567	-10.705120	-9.600348	2.422824	-4.243306	-1.443881	-1.800781	0.429199	0.037598
25433		36.668293	-12.554346	-6.438489	1.840736	-3.866829	-0.594054	-1.792236	0.415771	0.100586
25434		27.975900	-8.439908	-4.569901	1.524023	-3.141714	-0.640033	-1.785889	0.402588	0.146240
25435		18.316010	-3.839478	-2.158492	1.782335	-3.409676	-1.044945	-1.774658	0.382568	0.196533
25436		16.082168	-1.752035	-0.040028	1.194763	-3.722773	-1.101125	-1.766113	0.366699	0.259766
25437		18.751589	-1.897951	1.517569	0.957259	-3.443599	-1.155144	-1.746094	0.337891	0.308105
25438		20.865042	-2.430138	3.808760	0.785500	-2.870902	-0.974615	-1.730713	0.324707	0.345459
25439		19.014794	-1.965065	5.301424	-0.413847	-2.885088	-0.313303	-1.711182	0.311279	0.399902
25440		16.631148	-2.088068	4.987878	-0.974429	-3.159464	-0.302927	-1.696045	0.302246	0.447754
25441		15.456420	-1.390065	6.527116	-1.106995	-2.986472	-0.420332	-1.672119	0.291260	0.497803
25442		12.134610	0.882943	9.769185	-2.210051	-3.026554	-0.356549	-1.647705	0.260010	0.548584
25443		9.393916	3.319294	10.406345	-3.886657	-3.069117	-0.422508	-1.634277	0.226807	0.605713
25444		7.265989	5.028055	8.023081	-5.029325	-2.729052	-0.617299	-1.611572	0.182373	0.656738
25445		6.672532	4.443491	4.821120	-5.496103	-2.264617	-1.008485	-1.599365	0.124756	0.686523
25446		7.028712	1.994630	3.486730	-4.319295	-1.361818	-1.296852	-1.591797	0.078125	0.709473
25447		6.515307	-0.526737	8.565010	-2.837689	-0.418303	-1.261323	-1.590576	0.033936	0.706543
25448		3.768732	-4.226929	11.740523	-2.300118	-0.054483	-1.179874	-1.589844	0.007324	0.713623
25449		1.471031	-9.059723	9.791674	-1.876762	-0.008229	-0.987302	-1.589111	-0.019287	0.705811
25450		1.229959	-14.011441	8.872135	-2.194002	0.627944	-0.324269	-1.599365	-0.037109	0.688965
25451		3.345395	-12.080079	8.569970	-2.136167	1.451433	0.538102	-1.612305	-0.037109	0.665039
25452		2.934612	-6.993605	7.429221	-1.431495	1.968182	0.873053	-1.625244	-0.034668	0.630371
25453		0.701768	-4.917973	4.877651	-0.658324	2.089248	0.716511	-1.647217	-0.023682	0.604004
25454		0.779155	-3.345706	3.853795	-0.029232	2.205369	0.608887	-1.669189	-0.008057	0.570801
25455		1.963116	-0.955362	3.799417	0.613475	2.456853	0.580352	-1.686768	0.005127	0.531494
25456		3.157371	1.768260	4.073353	1.243959	2.749224	0.680332	-1.708740	0.020752	0.494141
25457		4.176301	3.540912	4.832464	1.681065	2.933623	0.798537	-1.730713	0.042969	0.446045
25458		5.154515	4.213017	5.135500	1.747156	3.116742	0.933892	-1.752930	0.073975	0.397461
25459		5.681468	3.912310	4.072237	1.383470	3.257343	0.978897	-1.766113	0.093994	0.355713
25460		7.666603	1.852891	1.750752	0.511752	3.194523	0.939023	-1.787842	0.105225	0.301270
25461		12.513862	-1.509396	-1.670057	-0.468322	3.022148	0.998217	-1.810059	0.125000	0.268066
25462		22.796461	-6.339583	-5.633084	-0.643522	2.560359	1.625722	-1.828369	0.171631	0.227783
25463		41.514584	-12.960289	-7.636106	0.394328	1.976213	3.429100	-1.829834	0.240479	0.187012
25464		34.344679	-12.921971	-7.747292	1.486978	3.493858	3.010304	-1.834717	0.284912	0.110352
25465		22.493665	-10.120725	-5.880838	4.456323	3.502507	0.602233	-1.845459	0.298340	0.034424
25466		24.171430	-6.347369	-3.141840	6.053150	2.698982	-0.098510	-1.849121	0.298584	-0.041260
25467		26.391567	-2.166013	-1.942401	5.032385	3.367684	0.811703	-1.842529	0.318848	-0.121582
25468		25.893131	1.051146	-0.327868	3.824882	3.553325	1.457758	-1.833740	0.343262	-0.208496
25469		24.950349	1.955544	0.471549	2.393582	3.357100	1.338471	-1.816406	0.367920	-0.277832
25470		23.965187	-0.044567	-0.600857	1.054307	3.164835	1.070099	-1.802979	0.381348	-0.344971
25471		22.089981	-4.845447	-2.723752	0.936355	2.961273	0.929840	-1.783203	0.390381	-0.401123
25472		19.902844	-8.102882	-3.168565	1.080216	2.608468	0.837967	-1.760986	0.401611	-0.459473
25473		17.958991	-7.914943	-3.436641	1.185705	1.934481	0.758575	-1.739014	0.406250	-0.500244
25474		15.430732	-5.553147	-2.515924	1.385866	1.534576	0.494033	-1.721191	0.404297	-0.545410
25475		12.715743	-2.519300	-2.135230	1.360067	1.302355	0.337681	-1.703125	0.397705	-0.577393
25476		9.480910	-0.603795	-2.338871	1.376587	0.967567	0.169325	-1.678711	0.386719	-0.600586
25477		6.280777	0.959654	-2.608792	1.187871	0.663877	0.061371	-1.667236	0.377930	-0.624023
25478		3.322376	2.558594	-2.554870	0.781151	0.302380	0.191629	-1.647461	0.371338	-0.630127
25479		0.309532	4.015533	-2.881362	0.140244	-0.079400	0.347503	-1.643311	0.377930	-0.630127
25480		-2.508463	5.129625	-3.479891	-0.625783	-0.456828	0.529716	-1.639160	0.384766	-0.621582
25481		-4.789341	5.497003	-3.771011	-1.387709	-1.015837	0.574623	-1.626709	0.404541	-0.593994
25482		-6.697578	5.374036	-4.423506	-2.199144	-1.721641	0.400019	-1.640625	0.419922	-0.551514
25483		-8.829648	5.539453	-5.895159	-2.913732	-2.372321	0.025360	-1.650146	0.437500	-0.496094
25484		-13.135910	4.040491	-8.360552	-3.169967	-3.397441	-0.411757	-1.668457	0.439453	-0.418701
25485		-15.629432	3.245945	-12.530823	-2.650043	-4.974734	-1.105077	-1.694824	0.416992	-0.314697
25486		-7.989266	3.849663	-9.726126	-2.525616	-4.385991	-1.923107	-1.725586	0.394531	-0.232422
25487		-0.268743	2.247181	-10.816844	0.690279	-3.684155	-2.456198	-1.742188	0.341309	-0.181396
25488		6.052854	-2.365839	-7.999928	4.749287	-2.789445	-2.299003	-1.756592	0.301270	-0.156738
25489		10.687049	-7.443725	1.198918	4.583845	-1.764483	-1.380191	-1.762695	0.279053	-0.141113
25490		13.722696	-10.423176	11.553476	2.130021	-0.473024	-0.123554	-1.771729	0.285645	-0.132813
25491		18.666528	-10.346777	24.979434	-1.258993	1.181828	0.944236	-1.760986	0.303467	-0.167725
25492		31.775169	-12.327055	36.805445	-1.348818	6.297732	1.554659	-1.738770	0.334961	-0.289063
25493		23.819982	-7.178251	23.172201	0.771854	4.189215	2.036354	-1.724121	0.375000	-0.335449
25494		14.103469	-4.691080	9.130267	2.305345	0.458748	3.002005	-1.716553	0.423828	-0.349609
25495		-2.697124	-3.886489	7.550910	2.086008	0.211957	2.803309	-1.706787	0.463623	-0.359375
25496		-16.989978	-3.155700	11.444345	1.722559	-2.352435	2.071578	-1.721191	0.494629	-0.306396
25497		-13.365125	5.770310	-7.724542	-2.116971	-2.799483	1.386995	-1.722412	0.532227	-0.260010
25498		-5.644199	15.526404	-39.631420	-9.239809	1.314063	-0.228049	-1.736084	0.543213	-0.230225
25499		-1.982148	26.242058	-38.746203	-5.525851	0.479847	-1.994734	-1.755127	0.516357	-0.216797
25500		17.570960	20.943364	-3.516510	15.781658	0.359119	-1.964920	-1.760742	0.434814	-0.352539
25501		30.354839	4.457040	71.950082	-0.173060	2.125688	1.581460	-1.768311	0.518555	-0.227783
25502		25.553854	-14.508488	-49.554025	-16.883004	-8.846096	0.891102	-1.790039	0.531494	-0.023438
25503		30.648836	-8.792006	-39.219978	-0.986812	0.981865	-2.279415	-1.798584	0.478516	-0.123291
25504		13.640950	-7.422619	-14.394879	3.096190	6.313101	-1.840083	-1.799316	0.449707	-0.206787
25505		0.163640	-6.182236	5.281750	0.178579	-0.741709	-0.500734	-1.808594	0.445068	-0.139893
25506		0.845572	-4.751244	-7.046052	-2.794538	-4.109009	0.153166	-1.804932	0.447266	-0.055664
25507		4.794829	-3.731149	-15.392207	-1.391459	-3.213624	-1.074272	-1.813232	0.413818	0.009766
25508		13.965930	-6.700182	-14.508797	1.304701	-3.799411	-2.279398	-1.819336	0.371582	0.077881
25509		27.954930	-11.634900	-8.260666	2.685775	-4.146319	-1.008262	-1.808838	0.364746	0.153564
25510		33.918980	-14.018871	-6.020950	1.348541	-4.092415	0.290050	-1.789795	0.369141	0.216309
25511		25.142817	-9.629655	-5.990884	1.159943	-3.518879	-0.609896	-1.783203	0.351318	0.272949
25512		18.637995	-5.309689	-4.092980	1.644742	-3.556700	-1.093097	-1.761475	0.335693	0.331787
25513		18.532171	-2.920601	-1.932282	1.516509	-3.636041	-1.109100	-1.743896	0.320068	0.377686
25514		20.333454	-0.034633	0.704632	1.570643	-3.152989	-0.919605	-1.724365	0.304443	0.423584
25515		20.367588	2.761420	3.919221	0.798098	-2.939687	-0.440932	-1.702637	0.297852	0.467285
25516		19.066993	4.149359	6.230988	-0.496150	-2.862077	-0.208121	-1.680908	0.288818	0.510742
25517		16.791311	3.773715	8.760801	-1.035156	-2.959526	-0.422216	-1.656738	0.271240	0.556885
25518		13.482942	2.893553	12.498209	-2.397160	-3.298715	-0.335953	-1.630371	0.242188	0.618164
25519		10.041485	3.633363	13.616290	-4.452581	-3.663499	-0.168344	-1.608154	0.213379	0.686279
25520		8.362711	3.810557	10.004718	-5.832867	-3.121349	-0.270092	-1.581055	0.160156	0.735352
25521		7.424872	3.368377	5.212640	-5.877522	-1.637605	-0.693386	-1.575195	0.098145	0.754395
25522		5.455522	1.672824	3.416199	-5.340747	-0.190880	-1.039529	-1.569336	0.042725	0.756104
25523		3.384408	-1.068663	4.959221	-4.481525	0.516690	-1.239658	-1.578857	-0.008301	0.742188
25524		1.151054	-4.590460	7.220810	-3.134595	0.530526	-1.416156	-1.579834	-0.052734	0.739258
25525		0.228614	-10.557482	7.846995	-1.925206	-0.048872	-1.269302	-1.583252	-0.085938	0.739990
25526		1.686953	-16.879002	8.952811	-1.515714	0.125143	-0.336089	-1.580811	-0.094727	0.731689
25527		4.299447	-16.954747	7.974314	-1.756222	0.988874	0.934056	-1.591797	-0.085938	0.709717
25528		3.776381	-10.620001	4.180610	-1.450013	1.933021	1.662863	-1.616211	-0.065918	0.678711
25529		0.536553	-5.470358	2.986699	-0.128003	2.188213	1.649174	-1.629395	-0.045898	0.649902
25530		-1.323663	-1.899197	3.254921	1.040258	2.025442	1.424735	-1.649902	-0.010498	0.625000
25531		-0.148869	0.378279	3.135340	1.634520	1.946523	0.970672	-1.665771	0.016113	0.598389
25532		2.343136	2.053228	3.276649	1.822111	2.228989	0.733239	-1.685791	0.042725	0.567139
25533		4.575503	3.243919	3.934256	1.876304	2.586054	0.722485	-1.705811	0.064941	0.527588
25534		6.552171	3.612392	4.508005	1.597157	2.710727	0.838559	-1.729736	0.080566	0.488037
25535		8.867334	2.459122	3.011695	0.937563	2.744889	0.927778	-1.745361	0.102783	0.454834
25536		12.692334	0.394618	0.216731	0.156626	2.752433	0.987903	-1.771973	0.125000	0.410889
25537		20.070959	-2.209285	-2.707722	-0.104707	2.510278	1.427113	-1.783203	0.153809	0.379883
25538		32.356490	-6.243291	-4.515217	0.651672	2.135696	2.648447	-1.791016	0.213623	0.341309
25539		32.941215	-8.844208	-5.112606	1.463071	2.870919	3.105565	-1.800781	0.271484	0.279297
25540		22.245833	-8.937606	-4.194846	2.874884	3.540053	1.661557	-1.814209	0.300293	0.209229
25541		21.966264	-8.355381	-3.311449	4.699535	2.659984	0.644200	-1.821045	0.329346	0.147949
25542		25.882669	-4.492288	-1.918348	4.744555	2.775033	0.571621	-1.829590	0.349365	0.073975
25543		27.774960	-0.264709	-0.723775	3.604529	3.166737	0.939816	-1.825195	0.371582	0.004395
25544		28.692246	0.974935	0.836807	2.842852	3.086553	0.888968	-1.827148	0.385010	-0.062744
25545		28.939123	-2.000399	0.992999	1.995272	3.077533	0.473214	-1.820313	0.394287	-0.134277
25546		27.377449	-5.277872	-0.923832	0.922059	3.144373	0.461729	-1.815674	0.400879	-0.203369
25547		22.766047	-7.796384	-3.359144	0.660119	3.153856	0.537987	-1.799805	0.405518	-0.272217
25548		18.499150	-8.750663	-3.777062	0.874083	2.782083	0.407374	-1.786377	0.405762	-0.330322
25549		16.130040	-7.577981	-3.754511	1.139049	2.303032	0.209341	-1.768311	0.403809	-0.384033
25550		14.359607	-5.266331	-3.199054	1.332941	2.036155	0.144658	-1.750244	0.399414	-0.433350
25551		12.719960	-2.417271	-2.701545	1.140197	1.781113	0.255389	-1.728271	0.401855	-0.472168
25552		10.482878	-0.327363	-3.062361	0.931666	1.526518	0.352490	-1.701416	0.395264	-0.508301
25553		7.818968	1.286837	-3.461916	0.688115	1.381479	0.347754	-1.683838	0.399902	-0.544922
25554		4.880163	2.812046	-4.199694	0.484433	1.143907	0.493725	-1.666016	0.397705	-0.570557
25555		1.619012	3.995392	-4.714460	0.354870	0.818238	0.595218	-1.648682	0.406738	-0.585693
25556		-1.556850	4.477482	-4.926816	0.000731	0.406534	0.633281	-1.637939	0.413330	-0.592285
25557		-4.363819	4.022965	-5.092955	-0.459391	-0.105913	0.564701	-1.627197	0.422363	-0.583740
25558		-6.772429	3.214490	-5.351631	-0.963352	-0.652037	0.384090	-1.625488	0.431152	-0.571045
25559		-9.065846	2.650570	-6.058856	-1.332319	-1.202757	0.145465	-1.621582	0.439941	-0.545410
25560		-10.993173	2.360657	-6.599936	-1.505389	-1.927823	-0.100560	-1.637207	0.437500	-0.500244
25561		-12.427595	2.757852	-8.133968	-1.454035	-3.103599	-0.467053	-1.659424	0.435059	-0.431396
25562		-9.671589	3.098300	-7.653569	-1.900639	-3.425989	-1.118273	-1.674805	0.415039	-0.368408
25563		-5.713223	1.564862	-6.326366	-1.178497	-3.036477	-1.801945	-1.700928	0.392578	-0.314209
25564		-1.406456	-1.404963	-5.633212	0.759138	-2.942745	-2.161179	-1.721924	0.352539	-0.265625
25565		3.010744	-5.277164	-3.864047	2.519241	-2.666049	-1.871845	-1.736572	0.317139	-0.230469
25566		7.511610	-7.576580	1.284284	2.570510	-2.209086	-1.016882	-1.751709	0.299316	-0.199951
25567		12.790034	-7.761110	10.889340	1.139293	-1.302685	0.014524	-1.754395	0.308105	-0.180664
25568		22.100711	-8.389055	24.170811	-1.237197	0.988103	1.178817	-1.750488	0.343506	-0.222656
25569		29.514403	-9.939994	26.858953	0.626609	5.124151	1.970610	-1.731201	0.376953	-0.305420
25570		22.626638	-6.249319	16.744259	4.147851	2.031082	2.640905	-1.714355	0.412598	-0.340576
25571		12.111875	-7.744395	18.424670	3.695354	1.073115	2.776666	-1.706055	0.441650	-0.375977
25572		-4.732381	-6.567925	20.570700	3.223269	0.000747	1.869806	-1.706787	0.468262	-0.376709
25573		-10.336081	4.804720	-13.395137	-2.021598	-0.976292	1.685381	-1.706055	0.519043	-0.352051
25574		-12.472046	17.450143	-43.223352	-8.908021	2.016179	0.446175	-1.708984	0.541260	-0.331299
25575		-12.914198	24.898626	-35.947576	-7.952570	0.567077	-3.181611	-1.734375	0.494385	-0.295654
25576		7.637538	13.439890	-12.855866	13.338004	-2.090045	-2.940087	-1.755127	0.401611	-0.373047
25577		20.668601	19.057778	76.130352	6.584125	1.369315	2.318032	-1.762207	0.476563	-0.289063
25578		24.025523	-15.186069	-45.698891	-19.345877	-8.840262	0.147322	-1.795410	0.498291	-0.052734
25579		39.987076	-9.213548	-38.722824	-3.267148	-2.036714	-1.438766	-1.800781	0.465088	-0.094971
25580		23.107017	-10.216935	-18.532256	3.338731	6.157389	-1.129974	-1.794922	0.445313	-0.202148
25581		6.730500	-7.044281	8.386561	2.331587	1.183486	-0.206495	-1.797363	0.449707	-0.172119
25582		2.118188	-4.183371	-3.582309	-2.849572	-3.652039	0.424683	-1.798340	0.451660	-0.083740
25583		3.104149	-2.391852	-15.392624	-1.850302	-3.457475	-0.522359	-1.807129	0.431641	-0.016357
25584		9.736326	-5.598378	-14.422770	0.768128	-3.900070	-2.125233	-1.811035	0.389404	0.062256
25585		22.454953	-11.463537	-10.076643	2.002156	-4.280495	-1.943244	-1.802002	0.355957	0.132324
25586		33.233109	-15.733788	-8.604870	1.323626	-4.338423	-0.763138	-1.793457	0.344727	0.212646
25587		29.043418	-10.681478	-7.903782	1.346987	-4.127924	-0.685852	-1.778320	0.329102	0.275635
25588		20.759895	-5.712918	-6.470443	1.498233	-3.981169	-1.230457	-1.759033	0.315674	0.347412
25589		18.976944	-3.657934	-5.573548	1.598497	-4.337801	-1.159814	-1.741455	0.293457	0.410889
25590		22.208459	-3.207325	-3.093624	1.835058	-3.921520	-0.675589	-1.713135	0.288818	0.458740
25591		22.816432	-2.035672	0.305881	1.825903	-3.303103	0.020340	-1.683350	0.297852	0.501953
25592		21.361408	1.399510	3.814251	0.885527	-3.358513	0.340875	-1.653076	0.300049	0.549561
25593		20.413588	5.558544	7.122873	0.023089	-3.482140	-0.165032	-1.631592	0.293213	0.599609
25594		16.565234	7.096076	11.309085	-1.129312	-3.614015	-0.442791	-1.600830	0.273193	0.656494
25595		10.801877	6.667104	12.485273	-3.054449	-3.958281	-0.411536	-1.565674	0.237793	0.729004
25596		7.256590	5.406034	10.102412	-5.159598	-4.212564	-0.354189	-1.538574	0.188965	0.788818
25597		7.375627	3.311880	6.603539	-5.660045	-3.275980	-0.839241	-1.513184	0.122314	0.838379
25598		6.836958	1.630219	8.328220	-4.555446	-1.810115	-1.114963	-1.494385	0.069092	0.859619
25599		7.327446	2.172140	9.902082	-3.541316	-0.266980	-0.733240	-1.495605	0.031494	0.858398
25600		5.025839	2.180825	9.189172	-2.613668	0.069650	-0.792948	-1.488281	0.002686	0.854980
25601		3.463742	-4.057972	9.612460	-1.734143	-0.661521	-0.932277	-1.489746	-0.028320	0.866699
25602		3.859229	-13.726776	11.240474	-1.866610	-0.076417	-0.398155	-1.493408	-0.048340	0.856445
25603		3.706826	-18.838034	9.408162	-2.156059	1.011459	0.466641	-1.503906	-0.061523	0.839355
25604		3.237026	-15.459350	7.680543	-1.875753	1.875900	1.053596	-1.521240	-0.054932	0.811035
25605		1.956180	-9.323919	7.468750	-1.227899	2.283614	1.309319	-1.543213	-0.043701	0.775879
25606		0.772728	-4.094375	5.156817	-0.272557	2.420316	1.142593	-1.569580	-0.026123	0.742920
25607		0.895764	0.794482	2.174662	0.339396	2.529770	0.902483	-1.595947	-0.008301	0.709717
25608		2.044317	2.737474	1.242250	1.099735	2.373669	0.580212	-1.618164	0.011719	0.683105
25609		4.804345	2.695538	3.428128	1.923663	2.464841	0.457613	-1.642578	0.040527	0.647461
25610		6.563099	1.947624	4.399327	1.940870	2.871483	0.546303	-1.664551	0.058350	0.599365
25611		7.004997	1.673994	4.268071	1.866608	3.145516	0.673416	-1.693604	0.089355	0.557129
25612		7.042614	1.489214	4.360561	1.757130	3.241462	0.785588	-1.717773	0.111572	0.513184
25613		9.202581	-0.271971	1.894535	0.921491	3.286976	0.730406	-1.739502	0.122559	0.458740
25614		14.235904	-2.963009	-2.812904	-0.124544	3.209118	0.784360	-1.768066	0.140381	0.416992
25615		23.536859	-6.489199	-7.603690	-0.130452	2.754592	1.381432	-1.783691	0.169189	0.377197
25616		36.395647	-11.006261	-9.565965	1.167887	2.350541	2.809911	-1.798340	0.238037	0.334229
25617		30.851998	-11.438792	-9.004485	2.661798	3.509238	2.582540	-1.803223	0.284668	0.255127
25618		22.814310	-7.486474	-5.932932	4.638105	3.763486	0.901578	-1.816406	0.313721	0.174316
25619		24.445932	-2.915308	-4.143049	5.282384	3.088764	0.238053	-1.824707	0.322754	0.104980
25620		27.599700	0.180988	-2.629959	4.426339	3.328374	0.239301	-1.833008	0.333984	0.016113
25621		29.198223	1.371977	-0.068393	3.167773	3.768961	0.498956	-1.834961	0.345215	-0.066162
25622		29.023771	0.635372	0.194316	1.518106	4.117096	0.530792	-1.821289	0.354248	-0.150391
25623		27.237842	-2.414879	-1.973674	0.308495	4.130476	0.598074	-1.816650	0.367920	-0.236816
25624		24.050058	-4.741698	-3.893148	-0.187960	3.900045	0.863583	-1.792480	0.385742	-0.314941
25625		20.134532	-6.291207	-4.678744	0.047505	3.558723	0.892538	-1.770264	0.396973	-0.381836
25626		16.384110	-5.579148	-3.864363	0.430588	2.934242	0.774008	-1.748291	0.406250	-0.439941
25627		12.996410	-3.662071	-2.320208	0.431888	2.353636	0.598094	-1.726074	0.410645	-0.480957
25628		10.196084	-2.010688	-2.354034	0.291323	1.869854	0.491650	-1.704102	0.417480	-0.521973
25629		7.705233	-0.554584	-2.406845	0.129319	1.544908	0.258216	-1.681885	0.411133	-0.555908
25630		5.333752	0.466136	-3.285379	-0.079382	1.139084	0.184808	-1.664307	0.417725	-0.579834
25631		2.602118	1.254318	-4.219172	-0.255634	0.791646	0.255105	-1.646973	0.422363	-0.588379
25632		-0.297327	2.076824	-4.687598	-0.517246	0.427382	0.340251	-1.642578	0.424561	-0.596924
25633		-3.107257	2.751376	-4.811030	-0.876087	-0.089125	0.371994	-1.629639	0.431152	-0.592773
25634		-5.207392	2.897877	-5.356530	-1.199486	-0.571270	0.289971	-1.627930	0.444336	-0.575684
25635		-7.346534	2.723171	-6.654240	-1.620692	-0.970972	0.150586	-1.630615	0.453125	-0.550049
25636		-10.237436	2.050138	-8.272988	-1.882981	-1.535404	-0.139732	-1.635254	0.453125	-0.511475
25637		-14.221091	-0.059783	-11.423137	-1.276247	-2.763193	-0.543428	-1.653076	0.448486	-0.455322
25638		-11.905736	2.717568	-12.094030	-1.306772	-3.717420	-1.175252	-1.681641	0.430664	-0.390381
25639		-5.801592	4.712810	-10.800472	-1.646352	-3.111870	-1.663744	-1.701172	0.408203	-0.329590
25640		-2.432669	2.762599	-12.086819	0.628099	-2.835754	-1.871724	-1.720215	0.370361	-0.283447
25641		2.072118	-3.137008	-6.310543	2.151989	-2.650595	-1.499721	-1.739502	0.348145	-0.239990
25642		6.841556	-7.917520	2.112531	0.727278	-2.737665	-0.417031	-1.742188	0.345703	-0.187988
25643		12.804968	-10.452028	13.281761	-1.789808	-1.945559	0.877939	-1.747803	0.378906	-0.150146
25644		21.355741	-15.504694	25.389722	-2.894664	0.590102	1.983124	-1.742188	0.423340	-0.168701
25645		30.690934	-19.106623	28.160246	1.963009	4.129509	2.617863	-1.722656	0.458984	-0.264404
25646		23.048853	-13.759812	26.802129	4.286824	2.782398	2.964232	-1.703857	0.507813	-0.306641
25647		7.179481	-10.839415	21.747082	1.902909	-0.130941	2.883837	-1.694092	0.547852	-0.307617
25648		-5.040316	-4.815161	16.070944	-0.155226	-0.923609	1.582116	-1.688477	0.576660	-0.286621
25649		-4.916799	9.982256	-27.097571	-4.471963	0.384498	0.738036	-1.698242	0.612061	-0.264160
25650		-4.183633	26.713657	-39.008721	-6.671613	1.383829	-1.209089	-1.708740	0.592041	-0.257080
25651		3.168063	31.472732	-30.967718	2.257750	-0.022811	-2.463657	-1.729004	0.538818	-0.286133
25652		16.770136	26.067826	17.231068	16.279679	0.683523	-0.839534	-1.722168	0.483643	-0.390137
25653		15.116643	-0.197371	44.822033	-5.697815	0.801860	-0.259359	-1.750732	0.525391	-0.257813
25654		16.769743	-7.491041	-37.142296	-14.355272	-7.658442	-0.852089	-1.778320	0.522705	-0.068359
25655		21.234971	-3.699182	-39.132483	-6.155546	-1.260218	-1.912134	-1.790771	0.493896	-0.082764
25656		15.152550	-9.112702	-23.549831	-0.272096	5.750644	-0.356819	-1.785645	0.496338	-0.175537
25657		0.419834	-12.043432	1.452785	4.774862	0.865348	0.086222	-1.783203	0.476318	-0.148926
25658		4.443683	-8.685426	-2.787666	-1.538622	-5.209873	0.113923	-1.786377	0.480469	-0.041260
25659		13.790723	-13.208843	-17.382894	-1.416095	-4.266456	-0.587929	-1.797363	0.460449	0.032471
25660		23.939496	-10.557633	-14.181612	2.587690	-4.089363	-1.678699	-1.792480	0.424805	0.106934
25661		36.977964	-12.126822	-10.183772	3.582159	-4.554784	-1.185688	-1.790527	0.411377	0.167725
25662		30.408007	-9.809309	-5.295243	2.774912	-3.442466	-0.998928	-1.775146	0.393555	0.215820
25663		17.627710	-5.215720	-5.402765	2.764722	-3.918230	-1.291109	-1.757813	0.377930	0.274658
25664		15.890769	-1.500223	-4.529340	2.464876	-4.675086	-1.196195	-1.740479	0.362305	0.350586
25665		19.395736	-0.086100	-2.554625	2.055780	-4.456419	-1.188370	-1.714355	0.348877	0.411621
25666		22.691841	0.454039	0.680700	1.435554	-4.154756	-0.699304	-1.686279	0.339844	0.466064
25667		22.445144	0.984058	2.311241	-0.305825	-3.776250	0.052131	-1.662598	0.339844	0.524658
25668		20.197025	3.033170	6.997092	-1.395221	-4.013199	-0.089425	-1.623535	0.322021	0.596680
25669		17.712315	4.350794	10.841909	-2.786960	-4.641178	-0.325151	-1.590576	0.288818	0.673584
25670		13.036121	5.097729	11.799724	-3.875221	-4.761863	-0.161769	-1.548584	0.250977	0.752686
25671		10.081087	5.873001	10.045328	-4.259652	-4.035139	-0.458138	-1.523926	0.204346	0.814453
25672		9.667437	5.773805	9.476031	-3.830854	-2.072904	-0.869891	-1.514160	0.160156	0.833008
25673		8.006530	3.345890	9.704031	-4.031073	-0.504210	-1.163390	-1.506104	0.102539	0.834717
25674		4.401201	2.381018	9.923786	-3.304746	-0.168133	-1.471837	-1.507080	0.053711	0.844727
25675		3.148699	-1.970021	11.562060	-2.551286	-0.582601	-1.500451	-1.495117	0.016113	0.848145
25676		3.989982	-9.572341	12.607807	-2.587052	-0.061321	-1.062887	-1.505127	-0.019531	0.846924
25677		5.776081	-15.420231	11.480176	-2.968950	1.001933	-0.152311	-1.517334	-0.048340	0.823730
25678		4.875209	-17.279771	8.659602	-3.394712	1.758329	0.853408	-1.534180	-0.059326	0.789307
25679		2.482736	-14.824435	5.586540	-3.303949	2.412436	1.322691	-1.560059	-0.059326	0.759033
25680		-0.175137	-9.448507	2.151712	-2.066101	2.651963	1.323219	-1.582031	-0.048096	0.721680
25681		-0.534127	-2.996401	1.625485	-0.167720	2.487314	1.105109	-1.606201	-0.028320	0.684326
25682		-0.702735	0.421689	2.179105	0.929433	2.472005	0.845470	-1.624023	-0.008301	0.653320
25683		2.072938	1.501389	2.783038	1.663800	2.312184	0.706627	-1.650635	0.020508	0.619873
25684		4.463324	1.120554	3.841922	2.108363	2.665539	0.859064	-1.672852	0.044922	0.588867
25685		5.670833	1.498543	4.428542	2.331988	2.985879	1.013160	-1.690674	0.076172	0.535889
25686		6.447367	3.044041	4.736519	2.458739	3.201584	1.161983	-1.719727	0.111572	0.491699
25687		7.153775	4.141699	4.182552	2.153335	3.150927	1.128141	-1.739990	0.144775	0.443115
25688		9.681086	3.679277	2.624365	1.058863	3.063319	1.004193	-1.763916	0.162598	0.396973
25689		14.894121	1.044859	-1.034900	-0.402906	3.028592	1.069684	-1.786133	0.182617	0.355225
25690		25.578414	-3.800645	-5.813141	-1.069151	2.737986	1.729059	-1.799805	0.220215	0.319580
25691		41.412111	-10.835235	-8.496105	-0.422343	2.461862	3.458741	-1.810059	0.289063	0.267822
25692		31.386325	-12.278973	-8.444733	0.865010	4.103686	2.728435	-1.812744	0.335938	0.184570
25693		22.672079	-11.586799	-5.631308	4.027609	3.651207	0.861202	-1.825684	0.355957	0.110596
25694		25.385506	-8.070174	-3.653487	5.357938	3.059248	0.485284	-1.832275	0.375977	0.030029
25695		27.616130	-3.117090	-1.956826	4.624491	3.602099	1.087856	-1.823242	0.398438	-0.063232
25696		29.504521	0.587159	-0.376442	3.591820	3.692935	1.243592	-1.821045	0.420654	-0.141357
25697		29.570241	-0.064494	-0.212136	2.438363	3.649671	0.819463	-1.805176	0.432129	-0.229980
25698		27.545465	-2.694696	-1.761453	1.425456	3.784532	0.668207	-1.787109	0.436768	-0.313965
25699		23.584320	-6.134962	-3.681430	1.006178	3.896891	0.669043	-1.769287	0.447998	-0.394043
25700		19.562025	-6.822455	-4.810989	1.224613	3.570835	0.625255	-1.738281	0.450439	-0.467041
25701		17.333000	-4.630355	-3.833697	1.162296	2.879694	0.509679	-1.713867	0.452881	-0.527344
25702		15.087326	-2.822045	-3.147985	0.958114	2.392713	0.346346	-1.693604	0.448730	-0.578613
25703		12.221067	-1.507000	-3.319951	0.743993	2.157800	0.069849	-1.662354	0.433350	-0.616699
25704		9.790747	0.532417	-3.973893	0.474623	1.819885	0.058407	-1.633545	0.437988	-0.657715
25705		6.958808	2.060493	-5.135410	0.498725	1.473996	0.170975	-1.613525	0.429199	-0.687256
25706		3.755077	2.737015	-5.417157	0.522193	1.082731	0.192136	-1.595703	0.424805	-0.704346
25707		0.193188	2.646844	-5.231050	0.636444	0.467321	0.330710	-1.580322	0.420410	-0.714844
25708		-3.275670	2.377432	-5.152601	0.728455	-0.161282	0.465866	-1.571289	0.413818	-0.712402
25709		-6.817924	2.836266	-5.461420	0.428069	-0.619544	0.638975	-1.565186	0.422852	-0.703857
25710		-11.668004	3.478949	-6.448841	-0.452019	-1.213856	0.776088	-1.565674	0.431641	-0.676270
25711		-18.119362	2.751858	-8.638047	-1.444871	-2.587509	0.668984	-1.584229	0.458008	-0.612305
25712		-21.832091	2.925089	-9.985091	-3.111344	-4.753663	-0.351069	-1.613525	0.462158	-0.515625
25713		-13.280740	5.374458	-8.812464	-4.643099	-5.761084	-2.067568	-1.657959	0.448486	-0.392822
25714		-3.292906	5.551634	-9.336678	-3.644327	-5.521195	-2.697420	-1.697266	0.410400	-0.277832
25715		1.350823	-0.004172	-7.658696	-0.600114	-4.777899	-2.583351	-1.727295	0.367920	-0.205811
25716		6.622123	-5.882641	-1.949401	1.229745	-3.766459	-1.980200	-1.744385	0.332275	-0.146729
25717		12.442202	-8.998322	7.105558	0.894862	-2.389836	-0.808970	-1.744385	0.327881	-0.116455
25718		20.321820	-11.557606	20.341172	-0.475401	0.245322	0.352069	-1.744385	0.336670	-0.140381
25719		34.240747	-16.505750	28.074612	1.481973	4.652803	1.238323	-1.728760	0.359131	-0.253174
25720		32.237957	-14.540160	25.919193	3.705658	5.374802	1.726285	-1.715820	0.385986	-0.324951
25721		24.692240	-8.079083	11.482953	2.750554	0.731658	2.711752	-1.705811	0.428223	-0.347412
25722		9.377966	-6.906393	6.956562	2.948089	0.965584	2.445406	-1.688965	0.457031	-0.384766
25723		-8.047408	-6.269115	8.834568	2.774516	1.062415	1.568742	-1.680176	0.470459	-0.410889
25724		-20.721795	-4.453036	10.072248	3.113595	-1.401450	1.267105	-1.687500	0.488281	-0.385742
25725		-23.745825	6.891633	-26.015093	-3.807262	-1.555313	1.943512	-1.685059	0.550049	-0.344238
25726		-20.962101	19.764255	-52.830440	-11.886467	1.549172	-1.264183	-1.702881	0.545654	-0.288086
25727		-7.664884	30.764586	-31.590029	-6.318518	-1.600666	-4.166740	-1.751953	0.485352	-0.239502
25728		20.855183	23.866364	11.959340	23.218109	0.804072	-1.685719	-1.733887	0.366455	-0.468994
25729		17.480266	21.498937	78.825941	-1.738850	0.999860	3.504537	-1.761475	0.509766	-0.227295
25730		33.438714	-21.632002	-89.105636	-25.214398	-14.942136	2.745923	-1.771484	0.560059	0.032227
25731		52.665184	-10.104926	-38.612481	4.417601	6.050277	-0.511542	-1.767090	0.540771	-0.187256
25732		16.165889	-6.581272	0.820509	6.346449	7.057366	-1.189886	-1.771973	0.505371	-0.250977
25733		2.825946	-6.695797	14.447945	-2.192655	-3.383879	-0.549568	-1.784180	0.511719	-0.139160
25734		3.082965	-1.635306	-14.707769	-4.509673	-3.340318	0.185658	-1.784668	0.511475	-0.076660
25735		2.800992	5.092406	-16.671769	-1.813025	-2.051417	-1.298624	-1.788574	0.476074	-0.013184
25736		8.907215	0.985649	-14.328528	0.096606	-4.174019	-2.579994	-1.799072	0.429199	0.070068
25737		22.389535	-10.843382	-11.352784	0.936846	-4.193142	-2.286588	-1.798584	0.395752	0.139893
25738		34.934576	-20.532590	-8.355588	1.244945	-3.742856	-0.622808	-1.785889	0.388916	0.215820
25739		29.438067	-20.714094	-7.900151	1.203166	-4.164950	0.079180	-1.773193	0.384521	0.278564
25740		22.673222	-13.793287	-6.383786	1.987517	-3.721013	-0.875694	-1.747070	0.371094	0.331055
25741		21.381463	-6.659647	-4.100006	2.263764	-3.639528	-0.684767	-1.723389	0.368896	0.376465
25742		20.680123	-0.800675	-1.122993	2.424097	-3.355384	-0.446167	-1.704102	0.366699	0.422119
25743		20.379580	3.401210	2.897069	1.671082	-3.290570	-0.144003	-1.682617	0.364258	0.469727
25744		19.743210	5.113447	8.550179	0.067320	-3.752965	0.057807	-1.652344	0.357666	0.526367
25745		18.676544	5.278229	11.221573	-1.692436	-4.431334	0.028969	-1.617432	0.339844	0.600586
25746		16.064487	5.723854	12.927766	-3.766136	-4.553275	0.253581	-1.584717	0.317627	0.677002
25747		11.697453	7.480057	10.959064	-5.140075	-4.113085	0.247148	-1.551270	0.275391	0.743164
25748		8.526481	8.766533	4.416279	-4.204935	-2.446526	-0.191274	-1.535645	0.244385	0.774414
25749		6.298446	5.934036	3.499699	-3.583548	-1.074836	-0.821359	-1.527832	0.193359	0.801758
25750		5.147077	-0.252284	6.247747	-3.746668	-0.797764	-1.402875	-1.521973	0.137939	0.807861
25751		5.226773	-4.977315	8.293742	-3.298476	-0.358041	-1.696575	-1.522949	0.084717	0.813477
25752		5.086891	-9.267099	10.843928	-2.963863	-0.316347	-1.404546	-1.521973	0.044922	0.821045
25753		4.787416	-12.663154	11.746655	-2.561131	0.020295	-0.631451	-1.520996	0.018311	0.811035
25754		4.760631	-13.046617	10.081780	-1.904304	0.800844	0.242323	-1.536377	0.018311	0.800049
25755		2.683011	-10.482547	7.229315	-1.637849	1.799539	0.941823	-1.546875	0.016113	0.770020
25756		-0.564692	-6.755015	5.497994	-1.262313	2.311123	1.175823	-1.568848	0.031494	0.732666
25757		-2.350344	-3.016079	5.283740	-0.708976	2.295773	1.124616	-1.588623	0.040527	0.701904
25758		-1.557129	-0.269839	4.687602	-0.262027	2.151373	0.816199	-1.608398	0.053711	0.677734
25759		0.479650	1.539908	3.579664	0.233315	2.211832	0.546214	-1.627930	0.058350	0.642822
25760		3.112094	1.814307	2.958819	0.317552	2.470292	0.408068	-1.647461	0.071533	0.607666
25761		5.399911	0.948170	2.741509	0.448720	2.743258	0.475453	-1.669434	0.082764	0.574951
25762		6.783821	0.508419	3.200903	0.987887	2.918106	0.685940	-1.697998	0.104980	0.526611
25763		7.312468	1.167381	3.863659	1.529510	3.066649	0.893996	-1.720215	0.129395	0.480225
25764		7.756423	1.939415	3.670791	1.694733	3.141170	0.993725	-1.738281	0.162598	0.440430
25765		10.091979	1.045287	1.786944	1.063849	3.108554	0.994721	-1.764404	0.180420	0.385742
25766		15.380408	-1.385576	-1.835206	0.093392	2.967507	1.175036	-1.782227	0.204834	0.343750
25767		26.457788	-6.155742	-5.834112	-0.080630	2.505015	1.976288	-1.789795	0.251465	0.314453
25768		39.213611	-11.749298	-7.822644	0.632798	2.345999	3.365285	-1.799805	0.313477	0.265137
25769		30.543453	-12.142799	-8.175719	2.013109	3.656398	2.236754	-1.804199	0.349121	0.177734
25770		23.728796	-9.771349	-5.623761	4.759022	3.454722	0.218870	-1.812744	0.360352	0.106201
25771		25.563747	-5.149861	-2.814725	5.376601	3.170328	-0.096191	-1.818848	0.369385	0.021729
25772		26.429462	-1.134938	-0.700367	4.344028	3.551745	0.643963	-1.818359	0.380615	-0.058350
25773		25.553373	-0.170379	0.781946	3.143885	3.720684	0.729077	-1.813721	0.392090	-0.146973
25774		25.258734	-2.201978	-0.027927	1.796385	3.539256	0.442527	-1.804443	0.398926	-0.222656
25775		24.501037	-5.124377	-1.913897	1.086562	3.388064	0.503237	-1.790771	0.401367	-0.289307
25776		22.237022	-7.414750	-2.946061	1.193775	3.204324	0.540817	-1.772949	0.406006	-0.364746
25777		20.168419	-7.476655	-3.190009	1.134109	2.707964	0.503417	-1.750732	0.410400	-0.420898
25778		18.089128	-5.592770	-3.003616	1.009408	2.346969	0.304245	-1.730469	0.408447	-0.476563
25779		15.387272	-2.964610	-2.718709	0.846291	2.233798	0.289932	-1.706299	0.413086	-0.517578
25780		12.066460	-0.843261	-2.856460	0.704984	2.007384	0.307702	-1.690430	0.408691	-0.566895
25781		8.923456	1.081713	-3.147379	0.434552	1.611642	0.280995	-1.664063	0.408936	-0.596680
25782		6.062672	2.454514	-3.888740	0.206080	1.109195	0.305850	-1.644043	0.402344	-0.615723
25783		3.230410	3.484471	-4.427520	0.063250	0.654509	0.381512	-1.630859	0.406982	-0.628662
25784		-0.047012	4.176243	-4.610592	-0.165364	0.209506	0.455844	-1.613525	0.413574	-0.628662
25785		-2.815414	4.302743	-4.457964	-0.489666	-0.344022	0.527433	-1.611572	0.420166	-0.622314
25786		-5.193364	3.913233	-4.315514	-0.974795	-0.978302	0.500084	-1.609863	0.431152	-0.594727
25787		-7.111262	3.803797	-4.642379	-1.653520	-1.511921	0.328959	-1.616943	0.435547	-0.555908
25788		-9.194308	3.742675	-5.452216	-2.327870	-2.059389	-0.033355	-1.626465	0.448730	-0.511230
25789		-12.042104	4.051118	-7.788940	-2.831921	-2.787285	-0.603386	-1.642090	0.448486	-0.448730
25790		-13.013257	4.233981	-8.015742	-3.519167	-3.216864	-1.277662	-1.662354	0.443848	-0.382080
25791		-10.083797	2.622146	-6.941135	-2.812549	-2.950185	-2.076130	-1.690186	0.408203	-0.318848
25792		-4.023793	0.141315	-9.452828	0.504777	-2.598138	-2.769894	-1.713379	0.359375	-0.285156
25793		2.343180	-4.515160	-6.539493	3.417912	-2.019948	-2.565062	-1.736328	0.308350	-0.256104
25794		6.847741	-8.088077	0.900476	3.092248	-2.074755	-1.337449	-1.749023	0.283691	-0.225342
25795		10.905469	-9.492121	10.391366	0.606690	-2.227740	-0.101152	-1.753906	0.292480	-0.182373
25796		19.364616	-11.676554	22.579903	-2.595764	-1.292912	1.272895	-1.752686	0.321289	-0.170166
25797		31.270242	-17.789402	29.090512	0.319877	3.228607	2.323033	-1.738037	0.370361	-0.242676
25798		29.541467	-11.549818	24.480227	3.927753	3.543105	3.061629	-1.710205	0.416992	-0.308350
25799		13.626882	-8.576089	22.807104	1.571770	1.514997	3.620469	-1.703125	0.479004	-0.318604
25800		-5.082435	-8.688328	11.509833	-0.022186	-2.029287	3.396901	-1.696045	0.532227	-0.281250
25801		-12.770099	-2.384353	-21.525004	-2.035610	-0.866811	2.130026	-1.690918	0.581055	-0.265381
25802		-18.692687	11.734787	-52.996826	-6.311820	1.984725	0.332376	-1.695557	0.587646	-0.261230
25803		-15.985997	27.072048	-38.239588	-4.328078	1.373472	-3.238920	-1.728760	0.523193	-0.264160
25804		6.717326	12.310627	-0.087122	17.953913	1.020766	-4.385417	-1.734619	0.384033	-0.437256
25805		23.693342	27.184901	89.604808	4.214608	0.888157	2.844563	-1.745117	0.487793	-0.291260
25806		36.408706	2.076715	-59.211732	-17.179790	-12.472047	2.047194	-1.770264	0.531494	-0.040527
25807		45.750061	0.006709	-36.526330	-0.288738	1.255279	-1.321876	-1.781250	0.494141	-0.177490
25808		18.118553	-4.898521	-7.816743	3.078046	8.594208	-1.753002	-1.766357	0.461182	-0.280029
25809		0.836460	-6.828594	9.047823	-3.641988	0.384999	-1.113839	-1.775635	0.460938	-0.206787
25810		-0.075618	-3.059586	-13.381910	-5.713589	-4.029963	0.458989	-1.783447	0.476318	-0.112305
25811		2.920983	0.258174	-17.449360	-3.291909	-2.363561	0.014098	-1.788086	0.467285	-0.056152
25812		7.697652	-3.579458	-14.678674	-1.070578	-3.150106	-2.036870	-1.791748	0.422607	0.018555
25813		19.539842	-12.047877	-10.652590	0.225840	-3.875686	-2.417870	-1.806396	0.375977	0.082275
25814		33.365826	-20.141645	-7.934186	0.167733	-3.382662	-0.885992	-1.789307	0.364746	0.153809
25815		33.469888	-19.858710	-6.509339	0.087414	-3.499404	0.389302	-1.778809	0.369141	0.212158
25816		21.312566	-14.938961	-5.784334	1.287124	-2.891373	-0.561279	-1.765625	0.351318	0.251465
25817		17.399193	-9.035967	-3.864475	2.223309	-3.377956	-0.935860	-1.746094	0.344727	0.301514
25818		18.717889	-3.285677	-0.721656	3.046339	-3.588293	-0.980728	-1.726563	0.335693	0.344971
25819		20.733862	2.216068	3.342249	3.087822	-3.231840	-0.784447	-1.707275	0.329102	0.386475
25820		20.342288	5.612264	7.212043	1.405515	-3.040603	-0.628249	-1.689697	0.317871	0.427979
25821		18.283910	6.591872	8.840914	-0.246896	-3.001659	-0.738022	-1.669922	0.302246	0.469482
25822		15.111702	4.481866	9.288635	-1.587975	-3.158191	-0.544726	-1.645752	0.275635	0.531006
25823		10.274859	2.925588	11.491795	-3.901002	-3.449682	-0.427090	-1.621338	0.242432	0.592529
25824		6.269628	3.413843	10.949235	-5.698334	-3.710585	-0.539920	-1.596436	0.191406	0.654541
25825		5.399828	3.250326	5.958899	-5.877907	-3.032800	-0.727832	-1.577881	0.135742	0.699463
25826		6.299852	1.863486	1.115153	-4.831283	-1.570299	-0.993656	-1.565918	0.089355	0.718018
25827		6.079231	-0.522787	3.410269	-3.512118	-0.573921	-1.001418	-1.565186	0.053711	0.731934
25828		5.214008	-4.012769	9.595124	-2.473646	0.005802	-1.025107	-1.562012	0.022705	0.726563
25829		2.831620	-7.979972	10.290999	-1.454277	0.006971	-1.065770	-1.565674	-0.008301	0.729492
25830		1.845505	-14.219525	9.720495	-1.059425	-0.039546	-0.588241	-1.565430	-0.012695	0.725342
25831		2.987196	-15.929635	10.110123	-1.069154	0.748833	0.256165	-1.571777	-0.017090	0.703613
25832		3.838381	-9.721774	8.592928	-0.488458	1.869777	0.932591	-1.589355	-0.006104	0.675293
25833		1.619402	-4.060116	7.793241	0.102527	2.413176	1.149596	-1.609131	0.016113	0.642090
25834		-0.677372	-1.221583	6.420130	0.206079	2.370984	0.960938	-1.622314	0.027344	0.604980
25835		-0.040778	-0.264813	5.287185	0.240643	2.228369	0.645730	-1.644287	0.040527	0.572021
25836		2.003969	0.248770	4.443464	0.200148	2.435723	0.487010	-1.668213	0.049561	0.539063
25837		3.660926	0.686129	3.172784	0.240566	2.632084	0.494477	-1.690186	0.064941	0.501709
25838		5.138698	1.032636	2.785120	0.756353	2.752891	0.704412	-1.708008	0.084961	0.462158
25839		6.532409	1.440777	3.528256	1.328361	2.925356	0.915019	-1.729980	0.109375	0.416016
25840		7.648440	1.454908	3.914251	1.571187	3.044803	1.005210	-1.747559	0.129395	0.370117
25841		9.701910	0.616551	2.427892	1.307140	2.986870	1.027427	-1.763184	0.156250	0.323730
25842		13.751778	-1.387777	-1.097413	0.396491	2.848351	1.176319	-1.783203	0.182861	0.283936
25843		21.478306	-5.393746	-5.983750	-0.261189	2.389110	1.780943	-1.803711	0.218262	0.252686
25844		36.830298	-12.539038	-9.804788	0.392863	1.858581	3.253376	-1.796631	0.289307	0.222656
25845		38.124144	-15.032712	-10.249915	1.693471	2.792803	3.650141	-1.802002	0.349121	0.152100
25846		26.192598	-11.603411	-7.471627	4.661727	3.787883	0.927632	-1.808105	0.362793	0.067383
25847		27.460775	-6.493789	-2.465953	6.290667	3.055189	-0.319157	-1.811768	0.362793	-0.008057
25848		30.518194	-0.556967	-0.459449	4.798197	3.718443	0.411107	-1.806885	0.374268	-0.111816
25849		28.620409	3.256918	1.120483	3.217116	4.266331	0.962976	-1.795898	0.394287	-0.198730
25850		25.861401	1.360252	1.463413	1.841070	4.019224	0.713283	-1.780029	0.398926	-0.282715
25851		23.644760	-3.944942	0.255833	1.227231	3.848003	0.470561	-1.763916	0.399170	-0.364502
25852		20.762717	-8.775623	-2.363231	1.135519	3.308081	0.561762	-1.737305	0.408447	-0.431396
25853		18.071249	-8.979167	-3.024974	1.305417	2.688666	0.538605	-1.717285	0.406250	-0.485107
25854		16.198023	-5.726070	-2.036748	1.006404	2.225765	0.378237	-1.695068	0.406494	-0.536621
25855		13.608205	-2.372972	-1.885126	0.693140	1.941682	0.126501	-1.677002	0.397705	-0.570557
25856		11.406456	-0.244427	-2.721183	0.647620	1.629787	-0.040548	-1.654541	0.386719	-0.604736
25857		8.973028	1.561200	-3.551023	0.456069	1.316076	-0.099064	-1.634521	0.375732	-0.630127
25858		6.523605	2.105599	-4.328864	0.385761	0.989061	-0.114655	-1.616699	0.371582	-0.651367
25859		3.927449	2.111986	-4.747900	0.329007	0.618203	-0.004718	-1.605469	0.364990	-0.657471
25860		0.509290	2.103668	-5.387459	0.498873	0.286599	0.216840	-1.587646	0.358398	-0.678711
25861		-3.216552	1.776410	-5.104217	0.608463	-0.164587	0.376989	-1.583252	0.358398	-0.672119
25862		-6.143593	1.294505	-5.008372	0.296174	-0.823881	0.526654	-1.579346	0.364990	-0.655029
25863		-8.416199	0.836261	-5.961568	-0.182124	-1.538696	0.653626	-1.583984	0.371582	-0.627197
25864		-11.538267	-0.241420	-7.295084	-0.495525	-2.369094	0.537569	-1.593506	0.382568	-0.578125
25865		-15.725986	-0.093767	-8.999318	-0.797835	-3.570400	0.055655	-1.618164	0.384521	-0.507080
25866		-14.134263	6.418993	-9.265590	-3.003329	-4.606868	-0.663874	-1.640869	0.390869	-0.414795
25867		-8.001443	9.552148	-8.416418	-3.874163	-4.512855	-1.551959	-1.671875	0.372803	-0.323975
25868		-1.780241	4.411234	-7.784410	-1.680288	-4.421114	-2.039393	-1.697754	0.339355	-0.247803
25869		2.854226	-3.891378	-5.824915	0.480047	-3.997997	-2.068745	-1.712891	0.308105	-0.182373
25870		7.726712	-10.109622	1.235642	1.036180	-3.275022	-1.387316	-1.725830	0.288086	-0.130371
25871		12.721395	-12.977690	13.466754	0.113484	-1.985143	-0.302225	-1.737061	0.290039	-0.100342
25872		23.923885	-15.318725	28.892668	-0.687842	1.151653	0.713247	-1.728516	0.314697	-0.150391
25873		32.650796	-16.372707	33.464619	3.031581	5.460374	1.666479	-1.710938	0.341553	-0.252441
25874		24.313316	-9.971521	18.486976	5.162961	2.952426	2.397222	-1.700439	0.370361	-0.296143
25875		13.752807	-4.869272	10.940585	3.325100	-0.002612	2.851285	-1.690674	0.421387	-0.303955
25876		-0.197200	-2.787876	13.523522	1.262922	-1.051050	2.827960	-1.694092	0.461426	-0.283691
25877		-8.303807	-0.609006	10.326806	0.112514	-2.146007	2.162733	-1.688965	0.503418	-0.254395
25878		-9.029818	8.993114	-38.954276	-5.938739	1.804818	1.808398	-1.677002	0.547852	-0.261963
25879		-15.304398	28.175112	-49.975917	-6.435252	2.845167	-0.905770	-1.687500	0.534424	-0.261719
25880		-11.282133	32.862827	-27.563278	0.558012	0.279228	-3.364889	-1.718262	0.461182	-0.279541
25881		16.231336	16.455705	74.734812	20.704855	0.526803	-1.307876	-1.716553	0.426025	-0.362549
25882		18.554751	-5.371766	5.374055	-13.217808	-5.107207	2.703412	-1.747559	0.516113	-0.083008
25883		47.387905	-13.618162	-61.822208	-15.738586	-8.335062	0.391393	-1.750244	0.511475	-0.011719
25884		38.570683	-11.514941	-27.227228	4.331957	8.245880	-1.180107	-1.750244	0.480957	-0.181152
25885		12.837712	-9.953183	5.078239	2.496122	3.798901	-0.966934	-1.751953	0.467529	-0.189453
25886		2.271008	-6.254633	-0.034060	-2.805729	-2.772073	0.076209	-1.757324	0.480713	-0.112305
25887		0.618153	-0.916957	-13.310030	-2.519693	-2.172491	0.431878	-1.755371	0.478516	-0.066895
25888		1.478016	1.792265	-15.584998	-1.050038	-2.489312	-1.398584	-1.759277	0.440674	-0.007568
25889		10.019411	-2.406416	-12.570254	0.524678	-3.849427	-2.556578	-1.765137	0.391602	0.064941
25890		21.401347	-10.233550	-9.324917	0.568363	-3.643158	-2.337250	-1.769043	0.353760	0.132813
25891		29.770629	-15.095166	-7.578364	0.397738	-3.387736	-0.924487	-1.760498	0.344727	0.193604
25892		27.223767	-13.381091	-4.893118	0.700439	-3.533366	0.099104	-1.743408	0.340332	0.251953
25893		22.623942	-11.467488	-5.214028	0.974225	-3.450618	-0.542225	-1.721680	0.326904	0.302246
25894		22.503505	-7.894872	-4.281606	1.511104	-3.305959	-0.776589	-1.710938	0.322510	0.347656
25895		20.454506	-3.272413	-0.912124	2.492872	-2.838037	-0.668782	-1.698242	0.320068	0.380371
25896		18.469867	0.591160	3.168794	2.452682	-3.230268	-0.414708	-1.667969	0.317871	0.423828
25897		17.627561	2.014958	5.609974	1.251849	-3.574815	-0.311906	-1.644043	0.311279	0.476074
25898		17.190454	3.519651	6.417850	-0.033485	-3.342959	-0.416852	-1.620117	0.297852	0.526367
25899		15.076231	4.892191	8.924418	-1.508536	-3.311608	-0.467765	-1.595947	0.273438	0.576904
25900		12.071237	5.502217	11.596247	-3.764941	-3.704185	-0.420179	-1.567139	0.240234	0.649170
25901		10.052750	5.804697	9.855694	-5.706943	-3.776498	-0.383362	-1.544434	0.188965	0.713379
25902		8.544241	3.627169	5.840245	-5.983410	-3.125428	-0.682520	-1.521484	0.133545	0.762695
25903		7.909821	0.602635	4.237711	-4.535284	-1.876260	-1.140438	-1.505127	0.082520	0.787842
25904		7.646594	-1.777740	7.658870	-3.186252	-0.680158	-1.235487	-1.501709	0.040527	0.782715
25905		6.228418	-4.660954	12.691881	-1.971326	-0.144936	-1.131447	-1.501221	0.016113	0.785400
25906		1.891509	-9.208439	13.499735	-0.807364	-0.397721	-1.081301	-1.502686	-0.008301	0.792725
25907		1.003344	-17.439423	12.367860	-1.228932	0.124780	-0.528558	-1.504395	-0.023682	0.784424
25908		2.973688	-19.274971	8.656607	-1.751106	1.465527	0.476838	-1.521729	-0.025879	0.754150
25909		3.378916	-13.149936	6.605588	-1.345845	2.269177	1.038409	-1.541504	-0.012695	0.723389
25910		1.138077	-8.149717	5.667498	-0.107556	2.428390	1.049439	-1.561279	0.005127	0.690186
25911		0.617289	-3.109359	5.850929	1.331497	2.221149	0.989314	-1.574951	0.033936	0.661377
25912		2.560178	1.561641	5.781022	2.163352	2.466896	0.843780	-1.601563	0.064941	0.625732
25913		4.636212	5.555508	5.475876	2.520087	2.971514	0.856150	-1.630615	0.098389	0.574707
25914		5.773318	7.891570	4.766646	2.692335	3.403822	0.873044	-1.646240	0.127197	0.522217
25915		6.254560	8.388955	5.418302	2.492980	3.570911	0.830193	-1.679199	0.156006	0.467041
25916		7.079487	7.048440	5.552174	1.727998	3.546191	0.738850	-1.694580	0.173828	0.410400
25917		10.042191	3.595942	3.060708	0.428392	3.475522	0.626955	-1.718506	0.191650	0.359863
25918		15.353499	-1.016046	-1.627124	-0.782161	3.388045	0.639503	-1.742432	0.196045	0.318604
25919		25.719362	-6.166967	-6.659932	-1.047959	2.993273	1.201041	-1.753906	0.229492	0.278809
25920		39.225552	-12.297563	-10.066466	-0.050952	2.758721	2.634089	-1.765625	0.278320	0.221191
25921		29.597034	-12.938217	-9.455933	1.829627	4.147447	2.003105	-1.770020	0.304932	0.136230
25922		21.810632	-10.063004	-5.642597	4.653741	3.796647	0.251254	-1.782715	0.318359	0.060303
25923		24.363664	-4.537894	-2.395452	5.072562	3.103570	0.242186	-1.782471	0.325195	-0.017578
25924		27.724668	0.365362	0.106893	3.815866	3.472267	0.985975	-1.786621	0.349854	-0.095947
25925		28.743896	3.175231	1.828081	2.121824	3.720424	1.318727	-1.771240	0.370117	-0.174072
25926		27.637293	0.897497	1.110585	0.943390	3.665296	0.832151	-1.753662	0.383545	-0.245361
25927		25.090238	-4.477153	-1.454941	0.606561	3.594050	0.425032	-1.742188	0.385986	-0.316406
25928		21.282512	-8.281054	-4.007377	1.134221	3.465087	0.473093	-1.730713	0.386230	-0.387451
25929		17.354767	-8.681170	-4.821754	1.482888	2.931760	0.567367	-1.710449	0.388428	-0.452148
25930		14.064423	-6.198088	-3.968711	1.563974	2.268857	0.426807	-1.686035	0.384277	-0.501465
25931		11.388604	-3.239411	-3.273236	1.282605	1.853640	0.172585	-1.667969	0.377686	-0.541992
25932		9.288595	-1.297104	-3.127168	0.920278	1.581209	-0.108362	-1.649902	0.362305	-0.573730
25933		7.068107	0.366082	-3.444871	0.445327	1.314214	-0.262882	-1.636230	0.353516	-0.601318
25934		4.809179	1.101556	-4.390881	-0.072113	1.067393	-0.210611	-1.620850	0.351563	-0.616211
25935		2.156713	1.522958	-5.334758	-0.469060	0.826777	-0.020207	-1.611816	0.344971	-0.628906
25936		-0.715890	2.036083	-5.840794	-0.586072	0.443946	0.185709	-1.596680	0.353760	-0.639893
25937		-3.325704	2.441525	-5.626909	-0.563944	-0.138458	0.329457	-1.594727	0.362549	-0.633545
25938		-5.431395	2.235966	-5.831098	-0.649939	-0.765333	0.380192	-1.590576	0.364746	-0.607666
25939		-7.681059	1.646778	-6.924496	-0.601636	-1.336518	0.431248	-1.597656	0.375977	-0.590820
25940		-11.935275	-0.522599	-9.487544	-0.090290	-2.300501	0.299027	-1.613281	0.377930	-0.541504
25941		-14.594718	1.130376	-10.981196	-0.173034	-3.825509	-0.270583	-1.633545	0.373291	-0.472412
25942		-10.453238	5.141188	-9.477413	-1.666249	-4.153478	-1.286812	-1.666504	0.355225	-0.394775
25943		-4.461093	5.162285	-10.393426	-0.570288	-4.851427	-2.184781	-1.698975	0.315186	-0.305420
25944		1.598320	-0.572597	-9.142848	1.743351	-5.263899	-2.258587	-1.718262	0.274902	-0.216064
25945		7.807427	-6.998310	-2.058359	2.421868	-4.666650	-1.514983	-1.733643	0.257080	-0.146729
25946		15.477246	-11.350853	11.784614	1.207808	-2.544002	-0.258377	-1.733887	0.257080	-0.123047
25947		31.588002	-14.322984	33.736508	0.094179	3.149692	1.096374	-1.720459	0.283936	-0.231445
25948		31.183246	-12.188169	39.057589	1.397513	7.337354	1.684704	-1.700928	0.310791	-0.318359
25949		25.325195	-5.985284	18.660139	3.458971	0.646306	2.590617	-1.697266	0.346191	-0.334229
25950		12.894729	-5.228298	18.431032	3.811013	0.789644	2.648593	-1.682373	0.370605	-0.369385
25951		-5.914141	-1.513162	22.409153	4.750279	0.152685	2.160003	-1.678711	0.399414	-0.372314
25952		-10.513674	11.382761	-13.542277	-3.441295	-0.597342	2.261339	-1.674072	0.466064	-0.356934
25953		-8.777226	18.777037	-43.781572	-9.971887	2.191815	0.111722	-1.681396	0.488037	-0.338135
25954		-4.256732	24.138494	-37.762814	-7.017785	0.727373	-2.064740	-1.694092	0.463623	-0.307373
25955		6.492467	16.427167	-15.079769	10.170302	-1.189543	-1.906166	-1.708984	0.388428	-0.380859
25956		14.475115	16.498830	62.385041	8.047467	1.317023	1.168244	-1.714844	0.430420	-0.339111
25957		9.189496	-15.047370	-33.464984	-18.761050	-5.537070	-0.607219	-1.745361	0.451904	-0.128662
25958		21.335476	-7.710699	-41.535071	-9.025609	-4.526828	-1.922132	-1.753662	0.420898	-0.084717
25959		23.430927	-12.188836	-25.128462	-0.146348	3.917670	-1.028664	-1.759277	0.409912	-0.172852
25960		11.756610	-7.939676	1.597045	5.558338	2.362168	0.424765	-1.755127	0.416504	-0.175049
25961		9.801275	-7.245086	0.875580	-1.748448	-4.072644	1.152793	-1.758545	0.431885	-0.074219
25962		16.416651	-7.768429	-12.734736	-1.871466	-4.324847	-0.270062	-1.754150	0.411865	0.006104
25963		21.558202	-8.349160	-13.965965	0.600527	-3.484268	-1.953161	-1.764893	0.378418	0.065186
25964		27.421851	-11.261143	-9.833612	1.865224	-3.777295	-1.476389	-1.755859	0.349365	0.128662
25965		24.582446	-12.481712	-5.212075	1.811991	-3.437632	-1.143828	-1.742676	0.329346	0.183350
25966		17.017418	-9.147890	-5.839918	1.413203	-3.833205	-1.142560	-1.734131	0.315918	0.250732
25967		14.911589	-5.886078	-5.545717	1.470427	-4.219472	-1.080110	-1.712158	0.295898	0.318359
25968		18.493643	-5.102593	-5.008753	1.219042	-4.440114	-0.959760	-1.690430	0.278076	0.383789
25969		22.804812	-5.863960	-3.879425	1.304977	-4.356598	-0.348768	-1.669189	0.282471	0.446289
25970		21.217077	-4.799231	-1.653715	1.099728	-4.008129	0.327025	-1.632813	0.295654	0.493896
25971		19.637663	-1.310247	0.528798	0.740099	-3.967829	0.304157	-1.602783	0.293457	0.552490
25972		20.434775	4.816975	7.337708	0.129800	-4.299137	0.013855	-1.565918	0.286865	0.619873
25973		17.583011	9.222056	12.526850	-1.504109	-4.736770	-0.122127	-1.529053	0.275635	0.689453
25974		13.307812	9.934244	12.734131	-3.453871	-4.644026	-0.107090	-1.498291	0.237793	0.770752
25975		10.346000	8.724985	10.918739	-4.441887	-3.795769	-0.472257	-1.460205	0.191162	0.815430
25976		8.584083	7.000687	10.652233	-4.060905	-2.332979	-0.931601	-1.443848	0.142578	0.847168
25977		7.613480	3.813956	10.381694	-3.990871	-1.076039	-1.190168	-1.440186	0.084961	0.857422
25978		6.532429	1.437279	10.241115	-3.403744	-0.481966	-1.328065	-1.434814	0.040527	0.863037
25979		5.688862	-3.779348	11.513550	-2.642025	-0.559900	-1.207981	-1.427246	0.002930	0.872803
25980		6.523490	-12.784469	12.628822	-2.659326	-0.019437	-0.666294	-1.430664	-0.030273	0.865234
25981		6.367664	-19.139705	10.095039	-2.676247	1.310234	0.273358	-1.452148	-0.041504	0.839355
25982		3.589239	-17.196056	9.446208	-2.251519	2.202650	1.022471	-1.467041	-0.045898	0.806885
25983		1.449110	-10.255339	9.154174	-1.598639	2.772543	1.361333	-1.499756	-0.032471	0.765381
25984		-0.942871	-2.514465	6.962052	-0.909962	3.130909	1.219285	-1.530273	-0.019287	0.721436
25985		-1.109274	4.068494	3.700882	-0.221182	3.181783	0.812897	-1.554199	-0.012451	0.682129
25986		0.837641	6.183402	1.703956	0.280391	3.048373	0.344460	-1.578125	-0.005859	0.640869
25987		4.105258	5.531720	2.034294	0.917671	2.951698	0.192100	-1.604492	0.011963	0.596924
25988		6.584715	4.139021	3.911330	1.235643	3.327123	0.318682	-1.635010	0.025146	0.551025
25989		7.512886	2.880614	5.171384	1.023967	3.531701	0.549823	-1.660889	0.034180	0.502930
25990		8.025791	1.834887	5.164766	0.559297	3.592604	0.744774	-1.682861	0.054199	0.450439
25991		9.617787	0.054173	3.246191	-0.270918	3.591957	0.815607	-1.704590	0.065186	0.398193
25992		13.919673	-2.847591	-1.335125	-1.430619	3.496796	0.966707	-1.726563	0.078613	0.352295
25993		21.693597	-6.841498	-5.922019	-1.575103	3.110975	1.544230	-1.746582	0.109619	0.305908
25994		32.741214	-12.130655	-8.366893	-0.525728	2.704517	2.743798	-1.756348	0.158447	0.267822
25995		30.119480	-14.772553	-8.882852	1.259657	3.502964	2.731985	-1.767822	0.205078	0.195068
25996		22.905229	-13.710122	-6.943569	3.957246	3.696859	1.375692	-1.779053	0.238525	0.127197
25997		22.832542	-9.825255	-5.570103	5.714938	3.105720	0.770700	-1.781250	0.256348	0.053467
25998		25.829977	-4.359049	-4.236620	5.902818	3.107804	0.948107	-1.783203	0.278809	-0.029297
25999		28.134510	-0.492291	-1.967221	5.187160	3.359047	1.102048	-1.778564	0.294434	-0.100830
26000		28.999053	-0.399149	-1.038574	4.039458	3.632345	0.847085	-1.765137	0.310303	-0.191650
26001		27.943401	-1.323111	-2.027354	2.610736	3.737373	0.763703	-1.753906	0.314941	-0.267090
26002		25.220472	-3.892920	-3.618306	1.823426	3.890361	0.626744	-1.738037	0.321777	-0.355713
26003		22.005419	-4.740758	-4.375974	1.522661	3.830332	0.636301	-1.711182	0.326416	-0.435303
26004		18.741668	-3.474339	-3.570528	1.491736	3.503826	0.590235	-1.688721	0.320068	-0.497559
26005		16.460222	-2.281003	-2.339281	1.257088	3.027321	0.507564	-1.662109	0.324707	-0.551270
26006		13.880180	-1.323105	-2.058312	0.856098	2.613243	0.447838	-1.628662	0.318115	-0.606689
26007		11.205206	0.105940	-2.896880	0.392233	2.160207	0.439885	-1.604492	0.324951	-0.647705
26008		8.063646	1.142551	-4.003749	0.245980	1.700806	0.379267	-1.582764	0.331787	-0.669189
26009		5.311090	2.316420	-4.462516	0.009384	1.155689	0.505920	-1.567139	0.331787	-0.695068
26010		2.402755	2.889781	-4.674070	-0.214640	0.513745	0.669290	-1.552002	0.336426	-0.692871
26011		-0.711651	2.947803	-4.750583	-0.504093	-0.075501	0.739292	-1.543701	0.354004	-0.693115
26012		-3.888392	2.608161	-5.152216	-0.702221	-0.586734	0.734873	-1.535400	0.363037	-0.676025
26013		-6.932516	2.714808	-5.427673	-1.017247	-1.021775	0.744402	-1.538086	0.380615	-0.657227
26014		-10.420232	3.170158	-5.681390	-1.628721	-1.682066	0.714927	-1.547852	0.404785	-0.616943
26015		-15.386581	2.901166	-7.068038	-2.588711	-2.981028	0.380239	-1.562012	0.422363	-0.548584
26016		-17.681591	2.807666	-8.549626	-3.590846	-4.375174	-0.748768	-1.591064	0.422119	-0.462646
26017		-11.661685	1.844434	-6.842274	-2.995658	-4.769312	-2.456301	-1.623779	0.386475	-0.373535
26018		-4.080956	-0.006747	-7.564863	-0.508336	-4.950199	-3.147941	-1.660156	0.333008	-0.294678
26019		1.263971	-3.932239	-6.425007	2.560238	-4.693666	-2.795575	-1.679199	0.288330	-0.222656
26020		7.412092	-6.889167	-0.171293	3.764993	-3.689549	-1.638781	-1.694092	0.261719	-0.176758
26021		12.974642	-7.257597	10.377057	2.403314	-1.860641	-0.229607	-1.700928	0.266113	-0.157471
26022		21.742760	-7.903605	22.362899	-0.016843	0.709740	1.020131	-1.688232	0.288330	-0.192383
26023		29.453800	-11.188706	29.751895	0.572548	5.274574	1.861516	-1.677246	0.317383	-0.279297
26024		22.944879	-8.706509	18.982418	1.942846	2.361081	2.129889	-1.660645	0.357422	-0.306152
26025		17.257276	-4.922094	9.997266	1.580187	0.106155	2.896682	-1.650879	0.399414	-0.313721
26026		2.241289	-5.022231	7.618396	1.396280	0.163276	2.351759	-1.647217	0.435059	-0.327637
26027		-11.331233	-3.757088	7.073089	2.076384	-0.850419	1.413832	-1.652100	0.446045	-0.310791
26028		-13.114086	9.471477	-6.229074	-0.299459	-2.065610	1.576900	-1.653564	0.490234	-0.279541
26029		-7.544064	16.702903	-32.636376	-8.746725	1.798176	-0.224655	-1.658203	0.499023	-0.256104
26030		-2.425917	19.655040	-34.520700	-6.752580	-0.455843	-2.789894	-1.681641	0.456787	-0.205566
26031		20.598029	16.591907	-5.888551	14.962453	-1.984971	-2.186222	-1.692139	0.390381	-0.301025
26032		39.094401	10.917158	64.738677	2.527392	1.771086	3.167877	-1.686523	0.483398	-0.217285
26033		20.193084	-10.212547	-42.111507	-16.779650	-7.506080	1.912187	-1.697998	0.516113	-0.009033
26034		21.496080	-3.647349	-40.278571	-4.566548	-2.178206	-1.931271	-1.714111	0.471680	-0.031738
26035		14.215757	-1.658826	-18.937055	1.752103	5.728692	-1.708569	-1.714844	0.449951	-0.130371
26036		-0.078598	-4.422917	-0.681798	0.176583	2.333501	-0.424919	-1.714844	0.443115	-0.114990
26037		-1.918409	-3.187419	-1.982521	-2.069393	-3.635441	-0.388739	-1.717529	0.438477	-0.020020
26038		6.306385	-3.844524	-13.264709	-2.801140	-4.143668	-1.204394	-1.717285	0.400635	0.060791
26039		17.548965	-7.796277	-15.797509	-0.358609	-3.804642	-2.899856	-1.722900	0.344971	0.133545
26040		33.482411	-12.220251	-9.762006	1.491313	-4.192443	-1.148815	-1.712646	0.347168	0.200439
26041		33.713096	-16.515658	-6.332909	0.286480	-3.493025	0.664327	-1.695557	0.347168	0.252441
26042		20.993483	-14.513179	-6.579287	1.076173	-3.046948	-0.299754	-1.682617	0.340332	0.297852
26043		15.737916	-10.096563	-3.742064	1.805838	-3.276759	-0.943592	-1.671875	0.329102	0.345947
26044		17.016619	-6.451356	-0.273244	1.846590	-3.019584	-1.290176	-1.649658	0.302490	0.383545
26045		19.724197	-3.362981	1.477321	1.924662	-2.879728	-1.079764	-1.634521	0.298096	0.416016
26046		20.103458	-1.396993	3.263757	0.914886	-2.838502	-0.320487	-1.608643	0.295898	0.459473
26047		17.561023	-0.702647	6.107613	0.093946	-3.251943	-0.039788	-1.584961	0.295898	0.507324
26048		16.504534	-1.397477	9.665309	-0.268714	-4.197367	-0.086711	-1.554932	0.291260	0.585449
26049		15.474789	-0.107056	13.558089	-2.109455	-4.538834	0.281658	-1.524170	0.266846	0.648926
26050		13.429547	3.534680	12.688918	-4.495350	-4.328533	0.398983	-1.486816	0.238037	0.712646
26051		10.749532	6.772925	6.945977	-4.542070	-3.291990	-0.002576	-1.468750	0.206787	0.756836
26052		8.674648	6.658394	3.202514	-3.279711	-1.715846	-0.607398	-1.459473	0.175781	0.774902
26053		7.359810	3.426767	5.902630	-2.813616	-0.773075	-0.999041	-1.460693	0.133789	0.786865
26054		6.436537	-1.181017	10.228996	-2.435104	-0.266734	-1.295405	-1.455322	0.095947	0.792480
26055		4.756779	-4.803795	13.395216	-1.942647	-0.400281	-1.254943	-1.449951	0.062744	0.797607
26056		3.931907	-8.526751	15.769946	-1.770587	-0.204589	-0.733735	-1.449707	0.045166	0.795898
26057		4.148396	-8.777205	14.617006	-1.673743	1.073938	0.035760	-1.464355	0.033936	0.781006
26058		3.928222	-6.123298	10.732709	-1.915806	2.486176	0.576276	-1.490234	0.031738	0.737793
26059		1.270723	-2.769082	7.416646	-2.260209	3.070822	0.854936	-1.520264	0.022949	0.696777
26060		-0.805406	-1.162006	4.558913	-2.564872	2.895837	0.805827	-1.539551	0.020752	0.662109
26061		0.253191	-1.253580	3.096432	-2.118374	2.767594	0.459795	-1.569580	0.009766	0.625244
26062		2.780667	-0.814041	2.139588	-1.153815	2.853931	0.354917	-1.586914	0.014160	0.586182
26063		4.728298	0.240893	1.430156	-0.256605	3.096910	0.458785	-1.606445	0.023193	0.542725
26064		5.604938	1.513312	1.606681	0.796726	3.205106	0.736175	-1.626221	0.042969	0.500977
26065		5.550686	1.830024	3.270389	1.503522	3.275613	0.963705	-1.646240	0.069824	0.450439
26066		5.930053	1.116609	3.671970	1.429845	3.277086	1.018189	-1.675049	0.098633	0.399658
26067		8.725097	-1.320933	0.896950	0.535680	3.199854	0.968607	-1.696777	0.111816	0.355957
26068		14.540036	-4.690812	-3.252334	-0.307369	2.968695	1.149912	-1.710205	0.131836	0.316406
26069		27.010427	-9.798333	-7.572592	0.051140	2.285172	2.168500	-1.715576	0.180664	0.289063
26070		41.638175	-15.686018	-9.647338	1.446336	2.056297	3.887483	-1.725830	0.253906	0.241699
26071		28.888042	-13.358614	-9.060193	3.252434	3.873778	2.566920	-1.737305	0.298340	0.160645
26072		21.688470	-9.345708	-5.987569	6.129663	3.353231	0.570483	-1.741455	0.316406	0.086670
26073		24.648253	-3.834669	-2.399082	6.642404	3.085401	0.107464	-1.745361	0.327637	0.004395
26074		27.935614	1.513042	0.281254	5.362203	3.698956	0.867466	-1.745117	0.347656	-0.086914
26075		28.354822	3.614760	1.418224	3.491032	3.824645	1.307856	-1.734131	0.363525	-0.160400
26076		26.508515	0.361273	0.558683	1.893885	3.897082	0.922855	-1.716309	0.374756	-0.244629
26077		25.259804	-3.907091	-0.758369	0.876481	3.977444	0.872139	-1.700684	0.392822	-0.324951
26078		22.774382	-7.103682	-3.126284	0.803137	3.642045	0.938365	-1.682861	0.397217	-0.387451
26079		19.206817	-7.710016	-3.739585	1.044805	3.202604	0.843758	-1.663086	0.410889	-0.450195
26080		15.965415	-5.671980	-2.565007	1.123954	2.787325	0.628792	-1.629639	0.408936	-0.508057
26081		13.144228	-3.561474	-2.200687	0.897641	2.406662	0.360297	-1.611816	0.408936	-0.552979
26082		10.609687	-1.271842	-2.767970	0.641071	2.014133	0.173893	-1.591797	0.402588	-0.593750
26083		8.437633	0.528908	-3.592542	0.586014	1.491711	0.216805	-1.569580	0.398193	-0.625732
26084		6.483067	1.516692	-4.461679	0.397862	0.944092	0.329569	-1.556396	0.402588	-0.640869
26085		4.193880	2.309336	-5.187126	0.198332	0.509555	0.542200	-1.541016	0.402832	-0.655762
26086		0.933396	2.796363	-5.433060	0.055009	0.067406	0.690541	-1.530273	0.411621	-0.649414
26087		-2.147920	2.754007	-5.932416	0.008273	-0.448619	0.723618	-1.521973	0.425049	-0.643066
26088		-4.605927	3.089334	-5.962956	-0.145277	-0.945317	0.818948	-1.524414	0.433838	-0.632568
26089		-7.484766	3.953291	-6.161855	-0.819039	-1.371321	0.796115	-1.522949	0.449219	-0.600830
26090		-10.881598	4.344691	-6.964166	-1.736987	-1.949160	0.505372	-1.534668	0.462402	-0.558105
26091		-14.676415	4.458349	-9.786735	-2.597018	-2.993503	-0.044408	-1.553223	0.479980	-0.489746
26092		-13.993766	6.293947	-10.252210	-4.237346	-3.723314	-1.093109	-1.575439	0.470703	-0.412109
26093		-8.561062	6.618759	-10.761674	-3.438839	-3.661103	-2.119196	-1.610352	0.446289	-0.340576
26094		-3.039550	2.948951	-12.537003	0.108829	-3.473421	-2.841102	-1.635498	0.390625	-0.285400
26095		2.434346	-3.712693	-7.455606	3.044160	-2.797571	-2.932885	-1.654297	0.343994	-0.249756
26096		8.429296	-7.428858	2.667500	3.048364	-2.198628	-1.914843	-1.666504	0.306152	-0.218506
26097		14.685746	-9.911098	16.783166	1.109016	-1.072318	-0.501276	-1.669189	0.312744	-0.201660
26098		25.022645	-11.412631	32.054643	-1.728994	0.973156	1.134118	-1.660645	0.339355	-0.238770
26099		31.876819	-13.429297	32.641830	-1.160842	4.067516	2.374675	-1.646484	0.388428	-0.278809
26100		26.686749	-8.508940	16.117473	2.258069	0.518584	3.148627	-1.634277	0.437256	-0.303955
26101		11.295374	-7.721124	17.523498	3.051748	1.378706	2.849971	-1.617432	0.468262	-0.339111
26102		-10.993534	-3.240198	20.830066	1.291593	-0.643310	2.234069	-1.618652	0.505859	-0.309814
26103		-15.205417	8.639519	-8.734309	-5.782170	-1.899716	2.008074	-1.618408	0.561279	-0.255371
26104		-10.755172	19.463915	-40.573114	-9.861741	1.698420	0.057591	-1.618896	0.574463	-0.229980
26105		1.968464	21.258863	-29.576837	-4.070081	0.950941	-3.071559	-1.650146	0.519043	-0.239502
26106		20.785643	20.895922	9.775364	15.807625	0.505567	-1.644079	-1.654541	0.461426	-0.328369
26107		22.567846	6.721891	46.162089	-0.955426	-1.266708	1.373936	-1.667969	0.516602	-0.207275
26108		20.068065	-13.147322	-40.296625	-15.968820	-6.487927	0.490239	-1.685059	0.531738	-0.032959
26109		22.834912	-7.404822	-39.116910	-5.541893	-0.427192	-2.475016	-1.698486	0.476318	-0.066162
26110		14.560659	-8.852988	-21.275598	0.475090	5.382775	-2.269321	-1.697266	0.454346	-0.151855
26111		0.215278	-10.563219	0.653848	3.420191	1.006115	-0.514938	-1.703857	0.443115	-0.125732
26112		-1.238613	-7.514401	-3.983290	-0.875218	-4.759533	0.653349	-1.707031	0.456299	-0.020508
26113		6.543934	-9.944173	-16.851941	-1.644543	-4.997996	-0.492616	-1.707031	0.427246	0.066650
26114		20.812225	-9.573552	-15.689654	2.295424	-4.727465	-2.161193	-1.707031	0.400391	0.140625
26115		40.867058	-9.098627	-10.154972	3.576708	-4.930138	-0.952590	-1.694092	0.389404	0.205811
26116		35.437853	-7.575095	-6.576335	2.280683	-3.523970	-0.358685	-1.681152	0.382568	0.245117
26117		19.627417	-4.493470	-5.496489	2.335443	-3.347442	-1.193915	-1.672363	0.360352	0.297607
26118		13.530921	-0.990311	-3.264661	1.858222	-4.033534	-1.273043	-1.648438	0.346924	0.358398
26119		14.680766	1.277645	-1.294624	1.452518	-4.104705	-1.244787	-1.626709	0.329102	0.419678
26120		19.002201	1.097567	0.965936	1.245567	-3.823385	-1.164460	-1.611328	0.318115	0.465332
26121		21.342486	-0.670534	2.892018	0.142695	-3.619650	-0.487865	-1.583252	0.306885	0.521973
