// General information: 
//  MT Manager version: 2021.0.0 
//  XDA version: 2021.0.0 build 5908 rev 109668 built on 2021-04-19
// Device information: 
//  DeviceId: 00B45AE2
//  ProductCode: MTW2-3A7G6
//  Firmware Version: 4.6.0
//  Hardware Version: 2.0.0
// Device settings: 
//  Filter Profile: human(46.1)
//  Option Flags: Orientation Smoother Disabled, Position/Velocity Smoother Disabled, Continuous Zero Rotation Update Disabled, AHS Disabled, ICC Disabled
// Coordinate system: ENU
PacketCounter	SampleTimeFine	Acc_X	Acc_Y	Acc_Z	Gyr_X	Gyr_Y	Gyr_Z	Mag_X	Mag_Y	Mag_Z
24843		-0.032003	4.271207	3.459727	-0.647679	-0.527401	0.858191	0.139648	1.210938	-0.678955
24844		-1.052477	5.180198	3.785633	-0.059916	-0.588937	0.834726	0.142822	1.211670	-0.674316
24845		-1.407377	5.474221	3.572478	0.056166	-0.580943	0.807019	0.148193	1.212402	-0.687012
24846		-1.062493	5.228295	3.320394	-0.000108	-0.618614	0.749170	0.154053	1.201904	-0.691895
24847		-0.630496	4.607335	2.306892	0.025549	-0.560948	0.637839	0.169922	1.207764	-0.688721
24848		-0.211624	3.915737	1.301858	0.158232	-0.372157	0.507105	0.166260	1.212646	-0.692383
24849		0.164771	2.689188	0.441916	0.291496	-0.115898	0.376367	0.170654	1.202393	-0.701172
24850		1.205474	0.682851	0.986489	0.450019	0.179016	0.209610	0.182617	1.195068	-0.700439
24851		2.864790	-1.477409	2.327287	0.554831	0.468064	-0.090212	0.175049	1.202637	-0.718506
24852		4.225221	-3.605694	2.660339	0.552219	0.717017	-0.504716	0.174072	1.196045	-0.735107
24853		6.919841	-6.295990	6.674314	0.724867	0.777529	-0.826716	0.172852	1.197266	-0.734375
24854		9.176534	-7.670805	11.830284	1.001162	0.139268	-0.980462	0.156006	1.188232	-0.752197
24855		6.648779	-10.534034	15.072260	0.254883	-0.484207	-1.223254	0.135498	1.189941	-0.747559
24856		-1.199983	-17.871111	14.723789	-2.123510	-0.494150	-1.447021	0.119385	1.203857	-0.730225
24857		-6.389002	-18.143710	9.327699	-2.062246	-0.016165	-1.213890	0.102295	1.221680	-0.704590
24858		-5.144763	-13.812646	9.527590	-0.852055	0.545429	-0.946850	0.086426	1.227051	-0.696045
24859		-2.352216	-15.549537	10.224409	-0.290736	0.658520	-0.821747	0.082764	1.222168	-0.690674
24860		0.519367	-16.795454	9.990709	-0.058010	0.768380	-0.519510	0.087158	1.229248	-0.691406
24861		2.027486	-17.652218	10.194407	0.076302	0.867721	-0.126065	0.088135	1.227295	-0.697266
24862		1.855121	-19.703261	10.062012	0.116020	0.891246	0.081367	0.094971	1.221436	-0.690918
24863		1.373062	-21.434460	9.406101	0.204982	0.909360	0.060133	0.103027	1.217529	-0.699219
24864		0.871835	-21.685677	8.661055	0.344727	0.962069	-0.187583	0.097168	1.230469	-0.702393
24865		0.015048	-20.538285	7.839305	0.495518	1.050322	-0.490985	0.111084	1.215332	-0.708740
24866		-0.788615	-19.314567	6.826666	0.635023	1.220894	-0.570201	0.104736	1.218506	-0.719727
24867		-0.478443	-18.171611	6.008278	0.794746	1.419308	-0.446627	0.117920	1.205566	-0.723877
24868		-0.286568	-16.947469	5.570638	1.014369	1.539497	-0.305806	0.116455	1.205078	-0.732422
24869		-0.480830	-14.847491	5.385762	1.188076	1.578553	-0.207974	0.129883	1.189453	-0.745361
24870		-1.059895	-12.565007	4.960704	1.259082	1.574963	-0.177834	0.144043	1.184814	-0.750488
24871		-1.904669	-11.026471	4.919324	1.214006	1.570418	-0.200073	0.157959	1.167725	-0.751709
24872		-2.467528	-9.677834	4.427764	1.102636	1.551429	-0.217376	0.163086	1.163818	-0.765625
24873		-2.362839	-8.498955	3.528252	0.916349	1.427417	-0.206916	0.166504	1.164307	-0.775146
24874		-2.281395	-7.243447	2.450556	0.690351	1.256712	-0.181054	0.171387	1.155273	-0.769287
24875		-2.391905	-5.636701	1.915097	0.198761	1.080229	-0.171430	0.180908	1.150879	-0.771484
24876		-2.492189	-3.906370	1.623735	-0.409487	0.973656	-0.165384	0.184082	1.147949	-0.775635
24877		-1.817757	-1.874711	1.247079	-0.982172	0.937320	-0.205279	0.198242	1.160889	-0.747314
24878		-1.390502	-0.214270	0.959382	-1.519105	0.858190	-0.363721	0.191406	1.173584	-0.723633
24879		-0.914063	1.146542	1.189780	-1.876464	0.766510	-0.479146	0.186279	1.191895	-0.702148
24880		-0.647272	2.172104	1.240055	-1.867333	0.572086	-0.578028	0.187012	1.203369	-0.668457
24881		-0.685471	2.929806	1.533216	-1.441633	0.329827	-0.559172	0.191162	1.213867	-0.660645
24882		-1.004514	3.963702	2.483257	-0.742251	0.156058	-0.487966	0.177002	1.221680	-0.651855
24883		-0.966745	4.633772	2.762276	-0.163883	0.110538	-0.363103	0.184814	1.220703	-0.649414
24884		-0.698196	4.690504	2.362610	0.132523	0.110326	-0.266190	0.185059	1.222412	-0.655029
24885		-0.179756	4.249768	1.536784	0.259343	-0.001150	-0.211723	0.174561	1.219238	-0.653076
24886		0.339078	3.440273	1.018244	0.350951	-0.198849	-0.185991	0.169678	1.227051	-0.655273
24887		0.565399	2.369210	1.039071	0.423063	-0.402650	-0.104324	0.163818	1.220703	-0.672119
24888		0.243870	1.006146	1.230390	0.507606	-0.623142	0.066156	0.166016	1.215332	-0.673340
24889		-0.681302	-0.256910	2.444285	0.477896	-0.804057	0.292699	0.161133	1.213867	-0.687988
24890		-2.198351	-2.065249	4.195351	0.596143	-0.922632	0.548328	0.161133	1.206543	-0.698486
24891		-3.874327	-3.666944	7.884974	1.006059	-0.771498	0.739923	0.158447	1.197266	-0.716553
24892		-4.169231	-5.374336	11.285636	1.076269	-0.130943	0.967389	0.181641	1.189697	-0.734619
24893		-0.845186	-10.383700	13.651782	-0.149759	0.360459	1.407842	0.191406	1.192871	-0.729492
24894		3.255216	-18.098767	10.676371	-2.002510	0.199810	1.663402	0.217529	1.198242	-0.715576
24895		3.270886	-17.876670	7.904299	-1.348607	-0.344854	1.348336	0.237061	1.200439	-0.696045
24896		0.512819	-16.883895	9.678311	-0.682535	-0.536956	0.925792	0.235840	1.209229	-0.695313
24897		-3.234058	-18.191026	9.795194	-0.461139	-0.520471	0.689165	0.237061	1.206543	-0.698730
24898		-4.811760	-18.038657	9.311932	0.037581	-0.574315	0.246348	0.239258	1.212646	-0.691650
24899		-3.749725	-18.315008	9.606004	0.394442	-0.595989	-0.001628	0.240967	1.199951	-0.696533
24900		-2.604474	-18.615535	9.932070	0.518619	-0.609273	0.029428	0.228271	1.194824	-0.713379
24901		-2.385107	-18.659388	9.912396	0.423384	-0.602826	0.190762	0.224365	1.201416	-0.719971
24902		-2.989053	-18.675463	9.191164	0.327225	-0.583597	0.311029	0.228271	1.196533	-0.715820
24903		-3.548369	-18.203553	8.351614	0.246483	-0.611214	0.289366	0.229736	1.194580	-0.730957
24904		-4.203882	-17.966547	7.235054	0.227363	-0.752195	0.108698	0.218994	1.181885	-0.726807
24905		-4.929152	-17.234324	6.329325	0.305203	-0.874682	-0.094326	0.212402	1.176758	-0.740234
24906		-5.060297	-16.102841	5.802649	0.484706	-0.960262	-0.252879	0.202637	1.167969	-0.737793
24907		-3.875200	-14.351674	5.762404	0.682391	-1.014526	-0.290465	0.199951	1.179199	-0.741943
24908		-2.434459	-12.799781	5.498202	0.782605	-1.077519	-0.251984	0.182373	1.164551	-0.755859
24909		-1.546292	-11.399495	4.834966	0.844842	-1.148640	-0.156114	0.179443	1.158691	-0.762695
24910		-0.863120	-9.927964	4.049590	0.879335	-1.191357	-0.018275	0.166992	1.158203	-0.777100
24911		-0.409397	-8.342813	3.712711	0.766817	-1.219633	0.114623	0.154053	1.145996	-0.784180
24912		0.110423	-7.019151	3.261999	0.501324	-1.187069	0.233148	0.144775	1.144531	-0.790039
24913		0.558559	-5.880224	2.656757	0.128914	-1.019602	0.301961	0.146729	1.141357	-0.784668
24914		0.901020	-4.900247	1.736300	-0.311089	-0.821986	0.373005	0.148193	1.151611	-0.780518
24915		1.245656	-3.974696	1.230654	-0.617788	-0.634971	0.413389	0.138184	1.149170	-0.763184
24916		1.339800	-2.669794	1.296939	-0.608037	-0.470617	0.379590	0.147217	1.153564	-0.768066
24917		1.387313	-0.955165	1.861624	-0.502728	-0.287612	0.402652	0.149658	1.156982	-0.763672
24918		1.656475	0.955630	2.287821	-0.496157	-0.022954	0.535330	0.154053	1.167969	-0.752441
24919		2.423399	2.569506	2.314999	-0.649932	0.261956	0.678294	0.166992	1.168457	-0.739990
24920		2.506886	3.781376	2.186723	-0.881578	0.403992	0.650571	0.180420	1.181885	-0.729980
24921		2.076106	4.646500	1.517276	-1.073906	0.445718	0.467222	0.184570	1.185303	-0.717529
24922		1.979537	5.032376	1.228544	-0.908885	0.445261	0.222204	0.191650	1.191406	-0.703613
24923		1.753302	4.787547	1.071807	-0.504412	0.428192	-0.032057	0.197021	1.187256	-0.698730
24924		1.331537	3.855189	0.831276	-0.077788	0.388595	-0.236332	0.197021	1.186523	-0.702637
24925		1.021819	2.621089	0.636716	0.275993	0.426933	-0.317815	0.193115	1.185303	-0.707275
24926		0.932929	1.440317	1.272665	0.554899	0.556852	-0.338868	0.193115	1.176514	-0.710938
24927		1.155228	-0.079394	3.867277	0.970908	0.517719	-0.392720	0.186768	1.186035	-0.730469
24928		1.691998	-1.913221	9.055836	1.522655	0.055827	-0.462386	0.186279	1.170898	-0.746094
24929		0.399131	-3.771831	11.667872	1.527429	-0.697105	-0.575942	0.172363	1.164063	-0.768799
24930		-4.490169	-10.794538	15.048876	-0.181245	-0.853660	-0.860058	0.153320	1.171875	-0.767822
24931		-8.845789	-20.783200	9.425952	-2.428451	-0.503446	-1.325483	0.138916	1.185303	-0.749023
24932		-4.418210	-12.886408	6.416200	-0.938538	0.129739	-1.122260	0.121338	1.187988	-0.734619
24933		-0.926997	-14.708416	9.447006	-0.655956	0.419469	-1.176631	0.106934	1.182617	-0.727539
24934		3.850825	-19.181076	10.794734	-0.773968	0.398285	-0.693128	0.099365	1.204590	-0.724365
24935		6.994801	-20.627536	9.938552	-0.410292	0.458509	-0.303339	0.105713	1.201172	-0.726074
24936		5.259158	-21.310087	10.534717	0.038126	0.531220	-0.163168	0.105469	1.196777	-0.729980
24937		-0.136616	-20.726328	11.265695	0.252649	0.459328	-0.406167	0.099609	1.191406	-0.721191
24938		-3.642300	-20.531172	10.871395	0.433290	0.470885	-0.664165	0.100342	1.199951	-0.726563
24939		-3.451173	-19.248466	10.336481	0.544948	0.602008	-0.685490	0.092773	1.199219	-0.736572
24940		-0.781166	-19.358729	9.454277	0.510914	0.746258	-0.607345	0.095947	1.194580	-0.741943
24941		1.315514	-19.036362	8.015053	0.503960	0.925802	-0.462101	0.099854	1.188232	-0.742432
24942		1.689720	-17.915759	6.495743	0.632503	1.117373	-0.315292	0.092529	1.184326	-0.747314
24943		1.236893	-15.792563	5.635801	0.909559	1.301585	-0.203318	0.108643	1.179199	-0.754883
24944		0.275282	-13.564880	5.869180	1.174569	1.419536	-0.189870	0.116455	1.163086	-0.764648
24945		-0.563388	-11.753352	5.577844	1.275853	1.491833	-0.200810	0.121826	1.154297	-0.778076
24946		-1.076309	-9.864121	5.194648	1.213711	1.576231	-0.173068	0.137695	1.144531	-0.785645
24947		-1.605634	-8.285940	4.480950	1.021756	1.448000	-0.201358	0.138916	1.138184	-0.794189
24948		-1.847575	-6.899871	3.731918	0.693772	1.238866	-0.216193	0.147705	1.133057	-0.791016
24949		-2.556522	-5.834264	2.993831	0.356839	1.039866	-0.130487	0.151855	1.132080	-0.789795
24950		-2.824901	-4.791311	2.097325	-0.108047	0.786277	-0.035664	0.155762	1.135010	-0.789795
24951		-2.735993	-3.703892	1.113729	-0.597674	0.652663	0.039796	0.160156	1.140381	-0.768066
24952		-2.318889	-2.615573	0.534320	-0.894456	0.507853	0.025090	0.162598	1.150391	-0.769531
24953		-1.989367	-1.634807	0.903816	-1.028700	0.336149	-0.057803	0.174316	1.154785	-0.749756
24954		-1.233751	-0.387658	1.392714	-1.106808	0.192002	-0.197483	0.173096	1.162598	-0.740234
24955		-0.876711	0.779905	1.689884	-1.213606	0.008667	-0.378872	0.169434	1.170654	-0.720459
24956		-0.448097	1.822708	1.659161	-1.279894	-0.144098	-0.542578	0.165283	1.184570	-0.706299
24957		0.148654	2.760631	1.225115	-1.288105	-0.246723	-0.584885	0.146973	1.195557	-0.691406
24958		0.422414	3.682379	1.340808	-1.120559	-0.334938	-0.544617	0.133057	1.201660	-0.679688
24959		0.485025	4.352391	1.242225	-0.825705	-0.293730	-0.448760	0.136963	1.214600	-0.670166
24960		0.526567	4.440074	1.271608	-0.472334	-0.141474	-0.318117	0.133789	1.222168	-0.659424
24961		0.816673	3.806928	1.222735	-0.152763	-0.067533	-0.211008	0.119141	1.217773	-0.666992
24962		0.752058	2.926836	0.925198	0.022084	-0.227171	-0.120760	0.114990	1.216064	-0.662842
24963		0.366507	2.039989	0.963879	0.120925	-0.442306	-0.011613	0.116211	1.219238	-0.674072
24964		-0.300162	1.098797	1.395720	0.165420	-0.692030	0.149406	0.121094	1.208008	-0.680176
24965		-1.552740	-0.076104	3.438091	0.288351	-0.825157	0.386234	0.123779	1.217041	-0.681641
24966		-2.870791	-1.717078	6.492569	0.894998	-0.630422	0.688982	0.120605	1.200195	-0.706055
24967		-3.722015	-2.786679	11.588253	1.438923	0.031378	0.855565	0.125977	1.185547	-0.714111
24968		-1.868449	-5.923673	14.551335	1.250751	0.589569	1.304349	0.146973	1.190430	-0.740234
24969		1.541670	-17.304889	15.462727	-1.363345	0.831865	2.219036	0.174072	1.189697	-0.719971
24970		2.008105	-20.913238	7.626949	-2.009084	0.124743	2.635691	0.215332	1.195557	-0.700684
24971		-1.020598	-14.394089	7.994663	-0.902005	-0.527646	1.703543	0.235596	1.199463	-0.694824
24972		-7.155780	-16.176981	9.650330	-0.780745	-0.740854	1.078465	0.236328	1.203613	-0.691406
24973		-11.709526	-18.047084	9.259929	-0.473066	-0.765601	0.538635	0.243164	1.202148	-0.688477
24974		-7.296015	-17.216672	9.650764	-0.130368	-0.805732	0.222520	0.229736	1.206787	-0.693115
24975		-2.958254	-18.346524	10.057260	0.011899	-0.914013	0.122701	0.233643	1.198486	-0.695557
24976		-1.755492	-19.614711	10.218679	-0.054712	-0.992222	0.143156	0.222900	1.202881	-0.691162
24977		-2.483095	-21.016656	9.754274	-0.120138	-0.962700	0.332498	0.222656	1.197266	-0.693115
24978		-3.847327	-21.112601	8.758243	-0.117562	-0.943081	0.423314	0.222900	1.205078	-0.687988
24979		-4.786785	-20.756907	7.681639	-0.012813	-1.006320	0.226037	0.220215	1.199463	-0.689697
24980		-5.055070	-19.724675	6.433177	0.201416	-1.088890	0.010548	0.208252	1.201172	-0.697021
24981		-4.805342	-18.519332	5.353770	0.551538	-1.170135	-0.208170	0.188965	1.198486	-0.703857
24982		-3.748523	-16.300740	5.181567	0.899313	-1.239721	-0.313982	0.187012	1.184326	-0.712402
24983		-2.187128	-14.434589	5.353474	1.128031	-1.201146	-0.311019	0.179443	1.185303	-0.731934
24984		-0.534418	-12.327936	5.035105	1.206603	-1.103446	-0.290681	0.164551	1.167969	-0.738525
24985		0.695441	-10.527211	4.782343	1.154030	-0.959830	-0.250648	0.153076	1.164551	-0.755859
24986		1.563418	-9.071715	4.250351	0.966314	-0.844150	-0.213624	0.147949	1.158203	-0.759766
24987		1.850738	-7.752774	3.389738	0.608507	-0.702428	-0.183719	0.138672	1.148193	-0.769287
24988		2.210371	-6.496305	2.515717	0.253492	-0.507076	-0.172267	0.133545	1.147461	-0.773438
24989		2.187062	-5.287897	1.945770	-0.140539	-0.253710	-0.142280	0.137207	1.152344	-0.761963
24990		1.992673	-4.166189	1.249865	-0.578653	-0.138331	-0.030118	0.131104	1.165039	-0.756348
24991		1.634429	-2.846640	0.930348	-0.953261	-0.074404	0.090185	0.129150	1.171387	-0.741699
24992		1.168636	-1.585639	1.517526	-1.101533	-0.017888	0.262356	0.136230	1.172119	-0.729492
24993		0.516865	-0.114603	2.342459	-0.944401	0.084242	0.424975	0.138672	1.178223	-0.718750
24994		-0.137907	1.411300	2.602534	-0.706450	0.287136	0.553131	0.153809	1.186523	-0.713379
24995		-0.046230	2.806322	3.194763	-0.548738	0.497090	0.624292	0.160400	1.187256	-0.702393
24996		0.390890	4.042220	3.181006	-0.394431	0.561789	0.597173	0.172852	1.189697	-0.697510
24997		0.764399	4.810351	2.754483	-0.287969	0.511423	0.447456	0.183594	1.182861	-0.686523
24998		1.124907	5.299232	2.124654	-0.214309	0.403897	0.243902	0.184326	1.191406	-0.692383
24999		1.296955	5.364259	1.089106	-0.076329	0.360916	0.058101	0.192871	1.196045	-0.686035
25000		1.387245	4.727059	0.323405	0.200793	0.428141	-0.063984	0.193115	1.191162	-0.687256
25001		1.293983	3.367137	0.358394	0.444262	0.577728	-0.192068	0.197510	1.192139	-0.700928
25002		1.640358	1.477179	0.827482	0.558935	0.691943	-0.384097	0.196533	1.185547	-0.712646
25003		2.450932	-0.974206	1.710506	0.696136	0.771770	-0.653272	0.195557	1.185791	-0.722168
25004		3.286928	-3.841048	5.086560	0.879724	0.700654	-0.988098	0.179932	1.167725	-0.726318
25005		4.161845	-5.795761	9.979121	1.191959	0.142387	-1.167168	0.171631	1.172119	-0.750244
25006		2.603726	-8.132272	13.115241	0.768154	-0.351793	-1.325178	0.153809	1.170410	-0.760986
25007		-3.282402	-14.822901	14.633967	-1.561731	-0.416755	-1.552573	0.123779	1.173584	-0.737793
25008		-7.853420	-17.624817	9.252757	-1.997042	-0.043523	-1.498429	0.103760	1.193848	-0.716797
25009		-5.510164	-13.640428	8.279182	-1.038440	0.447869	-1.002440	0.101563	1.205811	-0.706299
25010		-2.936960	-16.850979	10.727129	-0.571468	0.469178	-0.739099	0.097168	1.212891	-0.708008
25011		0.242255	-18.784003	10.036153	-0.371082	0.371239	-0.426027	0.091064	1.207764	-0.695068
25012		2.004089	-19.298978	9.856438	0.021873	0.464158	-0.009095	0.100098	1.216797	-0.701416
25013		1.092751	-19.011781	9.997926	0.130798	0.481196	0.093764	0.099121	1.209229	-0.699707
25014		-0.357104	-20.239807	9.898355	0.248794	0.503426	0.097799	0.102295	1.199951	-0.704590
25015		-0.167124	-20.423474	9.681646	0.326788	0.572357	0.020861	0.113525	1.208740	-0.713135
25016		0.147444	-20.052797	8.911035	0.360764	0.638284	-0.144339	0.111084	1.203613	-0.708496
25017		0.129556	-19.494316	7.658589	0.402607	0.810479	-0.271366	0.118408	1.196045	-0.715088
25018		-0.127640	-18.337234	6.774197	0.509941	0.996779	-0.304973	0.120605	1.199463	-0.718994
25019		-0.401234	-17.341114	6.177398	0.695087	1.122996	-0.305669	0.118896	1.185791	-0.722412
25020		-0.526265	-16.091362	5.866695	0.935851	1.209890	-0.297884	0.136963	1.181396	-0.727539
25021		-0.739483	-14.191444	5.470295	1.166755	1.255258	-0.331312	0.129395	1.178955	-0.736084
25022		-1.201800	-12.042810	4.804083	1.324339	1.281258	-0.404097	0.139648	1.165527	-0.750977
25023		-1.692631	-10.062360	4.272473	1.289753	1.234169	-0.453672	0.142578	1.159912	-0.774658
25024		-1.983658	-8.806913	3.853264	1.057630	1.106055	-0.465173	0.147949	1.142822	-0.776611
25025		-1.909338	-7.207023	3.385121	0.699297	1.049749	-0.417886	0.145996	1.148193	-0.777588
25026		-1.866097	-5.598818	3.085410	0.233155	0.918477	-0.386285	0.149902	1.144043	-0.772217
25027		-2.221307	-4.048250	1.957377	-0.396772	0.691691	-0.269687	0.159424	1.141602	-0.763428
25028		-2.131052	-2.395390	1.513568	-1.001610	0.544067	-0.214246	0.152344	1.157959	-0.755371
25029		-1.689465	-0.776697	1.490919	-1.287160	0.378199	-0.227728	0.154541	1.164307	-0.737549
25030		-2.002215	0.608957	1.741329	-1.446771	0.248056	-0.281912	0.148926	1.173584	-0.719482
25031		-1.637233	1.783566	2.172178	-1.377494	0.070269	-0.473696	0.148926	1.187012	-0.704102
25032		-1.307596	2.406483	2.238357	-1.205846	-0.048677	-0.633989	0.141357	1.186768	-0.680908
25033		-0.453854	2.775794	2.561588	-0.968810	-0.155311	-0.699722	0.128174	1.201904	-0.669434
25034		0.369485	3.571378	3.207011	-0.695613	-0.209049	-0.676166	0.112061	1.201172	-0.674072
25035		1.082174	4.428416	2.904225	-0.527245	-0.161568	-0.561001	0.113770	1.215332	-0.646484
25036		1.723461	4.952357	2.052846	-0.428904	-0.056175	-0.415747	0.112305	1.213135	-0.653076
25037		2.077998	4.657898	1.292249	-0.218363	-0.061491	-0.295004	0.105713	1.216309	-0.648682
25038		1.597897	3.938243	0.993888	0.067361	-0.234311	-0.210984	0.092529	1.218262	-0.659668
25039		0.601647	2.695731	1.091497	0.304906	-0.533301	-0.107164	0.099121	1.220215	-0.661621
25040		-0.717141	1.080076	1.345660	0.469727	-0.808728	0.119302	0.093994	1.215820	-0.673340
25041		-2.484844	-0.926419	2.765088	0.550059	-0.970433	0.467541	0.084961	1.205078	-0.685059
25042		-4.377468	-3.025203	5.350100	0.725759	-0.986430	0.872880	0.088135	1.209229	-0.684082
25043		-6.108139	-4.217983	9.452699	1.085850	-0.610524	1.099134	0.100098	1.198486	-0.716309
25044		-5.414537	-5.824981	12.723290	0.922642	0.128306	1.434011	0.114502	1.177246	-0.718262
25045		-1.343664	-12.501797	13.905218	-1.096274	0.523601	1.975916	0.155762	1.188965	-0.714844
25046		2.281632	-20.160407	9.878382	-2.189235	0.068601	2.175084	0.178223	1.208984	-0.690918
25047		1.593406	-18.060450	8.470191	-1.073608	-0.425168	1.587361	0.189697	1.194092	-0.682373
25048		-1.158886	-17.268900	9.814610	-0.459022	-0.597887	1.051687	0.203613	1.193115	-0.675049
25049		-5.315417	-18.503819	9.307531	-0.190618	-0.678944	0.597954	0.197021	1.204102	-0.673584
25050		-4.849519	-18.688273	9.643140	0.140017	-0.766336	0.184442	0.199463	1.197754	-0.683838
25051		-2.836051	-19.310043	10.120853	0.351331	-0.810614	0.041707	0.187012	1.197754	-0.685791
25052		-2.375836	-19.825836	10.274641	0.334128	-0.811656	0.103467	0.193848	1.201904	-0.701660
25053		-2.717519	-19.594952	9.853595	0.257477	-0.793541	0.235229	0.187256	1.188721	-0.706543
25054		-3.266546	-19.413446	8.832391	0.163414	-0.809891	0.232100	0.181152	1.197754	-0.702637
25055		-3.922832	-19.014891	7.621808	0.113458	-0.941450	0.007667	0.174805	1.193359	-0.706055
25056		-4.648506	-18.369184	6.454337	0.172368	-1.079449	-0.273212	0.162842	1.191650	-0.705078
25057		-4.739373	-17.248229	5.672674	0.342562	-1.202480	-0.435909	0.160645	1.186035	-0.707520
25058		-3.866360	-15.571630	5.405362	0.515164	-1.289980	-0.434608	0.136963	1.173584	-0.718262
25059		-2.450822	-14.016571	5.212277	0.580158	-1.310008	-0.321174	0.127930	1.177246	-0.720947
25060		-1.083600	-12.446875	4.521977	0.566050	-1.308433	-0.172057	0.117188	1.176270	-0.727295
25061		-0.185161	-10.926650	3.897351	0.551027	-1.301535	-0.020018	0.113770	1.171387	-0.732178
25062		0.364134	-9.891954	3.198777	0.571013	-1.257922	0.120663	0.101563	1.171387	-0.732910
25063		0.714928	-8.653924	2.648057	0.564259	-1.132441	0.204514	0.092773	1.153320	-0.747314
25064		1.129217	-7.557382	1.883106	0.478391	-1.015947	0.265567	0.095459	1.152832	-0.749512
25065		1.402477	-6.394903	1.443315	0.232628	-0.849462	0.332323	0.090820	1.150146	-0.748535
25066		1.289185	-5.011235	1.042672	-0.163878	-0.687142	0.419752	0.094238	1.160156	-0.748047
25067		1.150377	-3.418505	0.966669	-0.569014	-0.564372	0.541054	0.093262	1.164551	-0.730957
25068		1.123066	-1.538005	1.081251	-0.833565	-0.427952	0.667545	0.096924	1.160156	-0.726318
25069		1.142200	0.537035	1.438655	-1.002281	-0.289871	0.775065	0.100830	1.169189	-0.713623
25070		1.265728	2.508791	1.509296	-1.068657	-0.173227	0.847387	0.116455	1.175049	-0.700928
25071		1.200941	3.826572	1.539711	-0.946525	-0.086577	0.809551	0.116699	1.185059	-0.691650
25072		1.050189	4.608611	1.445042	-0.672391	-0.013311	0.673873	0.134766	1.191650	-0.676514
25073		1.378895	4.859188	1.568845	-0.294402	0.018215	0.546438	0.140381	1.193115	-0.678955
25074		1.545242	4.566626	1.618101	0.020799	-0.033805	0.380694	0.139648	1.194824	-0.678955
25075		1.409279	3.935610	1.366901	0.212890	-0.049561	0.216236	0.155029	1.189453	-0.679443
25076		1.385308	3.186323	1.095377	0.409750	0.100358	0.134953	0.142578	1.189941	-0.691406
25077		1.687147	2.257621	1.372702	0.675486	0.341209	0.112741	0.149414	1.183838	-0.701416
25078		2.079609	1.012968	1.807096	0.808763	0.515043	0.015141	0.154785	1.175781	-0.711182
25079		2.662261	-1.011646	3.649821	0.886917	0.651598	-0.180958	0.156982	1.176025	-0.721924
25080		3.802700	-3.076253	8.212364	1.109592	0.440807	-0.393894	0.145996	1.170166	-0.739502
25081		4.334236	-4.400141	11.683962	1.300351	-0.243314	-0.506890	0.142822	1.156982	-0.767822
25082		0.660273	-7.365755	12.864038	0.655000	-0.607002	-0.898423	0.127197	1.146973	-0.761230
25083		-5.826612	-15.381069	11.896632	-1.827067	-0.360572	-1.329289	0.117188	1.161133	-0.750488
25084		-6.033078	-15.641180	7.133014	-1.852757	0.166279	-1.291846	0.096191	1.177490	-0.730469
25085		-3.091519	-14.676676	8.048260	-1.169732	0.576168	-1.014281	0.086426	1.182617	-0.711670
25086		0.695948	-17.881634	10.378463	-0.994642	0.544476	-0.744861	0.080322	1.197754	-0.703125
25087		3.073770	-19.469937	9.458199	-0.782590	0.576416	-0.405223	0.084473	1.199707	-0.698730
25088		3.062718	-21.219439	9.590409	-0.196745	0.637764	-0.219231	0.081787	1.205322	-0.696045
25089		-0.342052	-20.934351	9.903761	0.161032	0.572142	-0.143387	0.089355	1.195801	-0.702881
25090		-2.830019	-21.316976	9.906518	0.453219	0.500684	-0.127607	0.088379	1.187988	-0.693848
25091		-2.117974	-20.857245	9.546716	0.600153	0.500664	-0.088194	0.087891	1.189453	-0.715088
25092		-0.776846	-20.861954	8.862986	0.613040	0.561934	-0.106844	0.096436	1.183838	-0.724854
25093		0.122558	-20.797301	7.745288	0.625285	0.726171	-0.064087	0.097168	1.183105	-0.728516
25094		0.421874	-19.698369	6.534226	0.747796	0.930241	-0.033363	0.108154	1.174316	-0.735107
25095		0.454893	-18.166476	5.632395	1.030889	1.138341	-0.048988	0.104736	1.171631	-0.733887
25096		0.318070	-15.903869	5.485388	1.340899	1.284779	-0.118635	0.128906	1.154785	-0.758301
25097		0.082522	-13.306479	5.853463	1.565673	1.369376	-0.235654	0.135254	1.143799	-0.759766
25098		-0.376630	-11.149052	5.621062	1.666183	1.388439	-0.373318	0.129395	1.132324	-0.778076
25099		-1.327801	-9.155068	5.252750	1.595810	1.371592	-0.462817	0.145996	1.123047	-0.788818
25100		-2.074122	-7.453648	4.579410	1.247803	1.336552	-0.498460	0.152832	1.112793	-0.802734
25101		-2.447285	-5.888082	3.851554	0.736916	1.342587	-0.502703	0.153564	1.111084	-0.806152
25102		-2.453023	-4.569834	2.742016	0.188368	1.259493	-0.514147	0.150879	1.111572	-0.809082
25103		-2.490074	-3.503562	2.123698	-0.345459	1.104064	-0.503880	0.158203	1.110352	-0.796143
25104		-2.337182	-2.218821	1.573757	-1.025932	0.890556	-0.405177	0.171631	1.125732	-0.787354
25105		-1.963372	-1.222814	1.025155	-1.310848	0.661138	-0.295863	0.170654	1.125488	-0.765869
25106		-1.340393	-0.216301	1.528232	-1.237192	0.440706	-0.245078	0.168457	1.138916	-0.753906
25107		-1.658598	0.894322	2.394568	-1.132559	0.297578	-0.328452	0.166504	1.149658	-0.738037
25108		-1.371529	1.979161	2.719022	-1.045609	0.186251	-0.485465	0.163574	1.175537	-0.722900
25109		-0.467207	2.823351	1.914968	-1.026967	0.149937	-0.591384	0.156250	1.177734	-0.709717
25110		0.390023	3.574274	2.218384	-0.888438	0.155763	-0.629589	0.142578	1.183350	-0.699463
25111		1.291480	4.253984	2.265292	-0.716752	0.175123	-0.666804	0.141846	1.188721	-0.685303
25112		2.011420	4.527135	1.939131	-0.479860	0.178117	-0.487523	0.139893	1.187500	-0.686279
25113		2.631621	4.268664	1.573629	-0.237288	0.263496	-0.330643	0.128418	1.189453	-0.677734
25114		2.504554	3.493694	1.164456	-0.018024	0.136225	-0.179699	0.128662	1.186523	-0.688232
25115		1.610885	2.560927	1.104943	0.238146	-0.173952	-0.080580	0.133057	1.194092	-0.685791
25116		0.269656	1.486425	2.173699	0.400350	-0.488753	0.070679	0.125732	1.183105	-0.700439
25117		-1.577830	-0.085787	4.893069	0.648688	-0.649993	0.286650	0.124268	1.185303	-0.708252
25118		-2.828108	-1.597012	7.452556	0.985868	-0.468679	0.574571	0.126709	1.171387	-0.729492
25119		-2.476716	-2.885059	9.425317	0.978264	-0.109772	0.945051	0.143555	1.160645	-0.736084
25120		-1.257252	-6.286978	11.624354	0.665624	0.113076	1.388889	0.162598	1.159912	-0.749268
25121		0.006144	-13.346393	10.419963	-1.236736	0.127382	1.983499	0.184082	1.157715	-0.735596
25122		-0.897127	-19.163570	7.961652	-2.118001	-0.277730	2.195791	0.206543	1.171875	-0.711182
25123		-4.171406	-20.239644	8.790669	-1.382586	-0.536356	1.704579	0.218506	1.186768	-0.700928
25124		-6.019109	-18.375304	9.882535	-0.770573	-0.592501	1.155211	0.230957	1.175781	-0.700928
25125		-6.973961	-18.193713	9.309657	-0.212485	-0.625164	0.788416	0.236572	1.174316	-0.700928
25126		-4.608926	-17.868327	9.100460	0.198454	-0.663314	0.376030	0.243408	1.172119	-0.708984
25127		-1.068264	-19.259217	9.532457	0.438157	-0.688645	0.199491	0.234863	1.171875	-0.706787
25128		0.718243	-19.374459	9.865720	0.515664	-0.707413	0.087278	0.237793	1.173828	-0.717529
25129		0.182732	-19.254576	9.597491	0.415600	-0.631789	0.107917	0.224121	1.160889	-0.727783
25130		-1.397232	-19.214633	8.997112	0.311395	-0.611097	0.106064	0.224121	1.163818	-0.734863
25131		-2.964696	-19.254347	8.019241	0.219035	-0.679923	-0.020325	0.222656	1.160156	-0.733154
25132		-4.000778	-18.660731	6.712717	0.229830	-0.835859	-0.220822	0.211182	1.170654	-0.721436
25133		-4.948423	-18.105519	5.714163	0.357866	-1.005607	-0.399868	0.196777	1.156494	-0.730469
25134		-5.150171	-16.773711	5.308331	0.643212	-1.116704	-0.409959	0.190918	1.154541	-0.748047
25135		-3.861155	-14.404911	5.213969	0.890811	-1.143495	-0.262150	0.183594	1.144531	-0.749023
25136		-1.916090	-12.571936	4.608275	0.995072	-1.174634	-0.090989	0.161377	1.135254	-0.768799
25137		-0.407477	-10.978598	3.981032	0.983020	-1.202301	0.042390	0.157227	1.133789	-0.775879
25138		0.399048	-9.530415	3.358995	0.878450	-1.196394	0.159930	0.152344	1.123535	-0.784180
25139		0.862560	-8.253638	2.855449	0.679793	-1.157036	0.285142	0.146973	1.123291	-0.788330
25140		1.092162	-7.116849	2.690425	0.359734	-1.017539	0.360483	0.147705	1.118652	-0.792969
25141		1.450648	-5.863049	2.540379	-0.019631	-0.854728	0.383039	0.145752	1.113525	-0.783936
25142		1.673587	-4.261396	2.360913	-0.430454	-0.700745	0.362677	0.134277	1.127930	-0.782227
25143		1.903560	-2.765367	1.434814	-0.725546	-0.519741	0.326223	0.137451	1.123779	-0.777100
25144		1.780687	-1.233929	1.614805	-0.800349	-0.296971	0.280082	0.137939	1.144043	-0.770020
25145		1.705214	0.470500	2.252489	-0.774984	-0.193897	0.262310	0.141357	1.140625	-0.756348
25146		2.089409	2.132047	2.640617	-0.673953	-0.094382	0.329505	0.150146	1.150635	-0.753662
25147		2.490708	3.625570	2.836132	-0.580349	0.128474	0.406697	0.148926	1.149658	-0.750244
25148		2.223400	4.550600	2.552080	-0.561262	0.315081	0.323862	0.157471	1.152100	-0.738770
25149		1.509039	4.959567	2.839620	-0.500067	0.300092	0.183443	0.159912	1.166260	-0.728027
25150		1.140961	5.075776	2.669303	-0.385396	0.282232	0.059647	0.161133	1.160889	-0.726563
25151		0.600608	4.743702	2.222290	-0.242179	0.219591	-0.046707	0.169922	1.161133	-0.721924
25152		-0.071377	4.340525	1.436893	-0.215573	0.224795	-0.087606	0.172119	1.162842	-0.727295
25153		-0.166587	3.690077	0.714075	-0.101682	0.404965	-0.101296	0.164551	1.172607	-0.721680
25154		-0.077636	2.644889	0.120824	0.127603	0.630088	-0.156208	0.169189	1.173828	-0.733154
25155		0.067157	0.929625	0.980084	0.356590	0.837209	-0.251916	0.168213	1.168457	-0.723389
25156		1.515065	-1.727580	3.666262	0.768476	0.877329	-0.409355	0.171387	1.157959	-0.750977
25157		3.395800	-4.283732	9.009106	1.231410	0.404142	-0.537067	0.171631	1.148438	-0.768311
25158		2.500709	-7.252988	13.314251	1.106262	-0.427344	-0.722942	0.152832	1.143311	-0.780029
25159		-3.510142	-19.083878	17.854415	-1.722584	-0.823595	-1.117768	0.139404	1.157715	-0.758789
25160		-8.552991	-24.667073	9.297846	-2.585508	-0.708771	-1.455203	0.116943	1.176514	-0.741699
25161		-5.133504	-14.159607	8.988426	-0.738507	-0.159757	-1.024031	0.104492	1.185059	-0.727783
25162		-2.431295	-15.994482	10.979006	-0.297292	-0.009338	-0.798967	0.090088	1.190674	-0.725586
25163		2.879076	-19.095054	10.217652	-0.086749	0.013460	-0.210161	0.088623	1.179199	-0.725342
25164		6.120582	-20.212769	10.013048	0.145406	0.192116	0.387597	0.090820	1.191650	-0.734619
25165		4.376329	-19.812546	10.688731	0.160978	0.207101	0.437786	0.106445	1.182617	-0.734131
25166		1.836952	-21.736629	10.457313	0.352297	0.284519	0.379914	0.104492	1.179443	-0.740234
25167		1.428630	-20.751297	10.070591	0.543462	0.393698	0.286070	0.114990	1.171387	-0.744385
25168		1.826720	-19.796091	8.963809	0.597894	0.534387	0.120006	0.116455	1.180176	-0.746582
25169		2.484985	-18.965809	7.937755	0.629410	0.780285	0.033384	0.126709	1.164551	-0.742676
25170		2.520111	-17.845183	6.888574	0.735957	1.011545	0.005175	0.133789	1.167969	-0.759277
25171		1.524646	-16.284506	6.075601	0.958629	1.201349	-0.016756	0.136719	1.145020	-0.773193
25172		0.267056	-14.413473	6.027080	1.170896	1.343973	-0.024652	0.163818	1.146729	-0.775879
25173		-1.172401	-12.379681	5.409931	1.310237	1.437657	-0.072589	0.162354	1.131592	-0.788330
25174		-2.212636	-10.512303	4.904263	1.307178	1.468253	-0.166089	0.177979	1.116943	-0.797852
25175		-2.762250	-9.181319	4.311317	1.078206	1.414820	-0.269897	0.175537	1.115723	-0.805420
25176		-2.899984	-7.926796	3.756959	0.740859	1.345247	-0.311207	0.191162	1.113037	-0.804932
25177		-2.818295	-6.642282	3.378887	0.384890	1.209049	-0.332080	0.193604	1.109619	-0.802246
25178		-2.534852	-5.185890	2.401062	-0.000612	1.020695	-0.305887	0.196777	1.118164	-0.801270
25179		-2.031081	-3.972648	1.546873	-0.591758	0.856188	-0.257225	0.205566	1.117188	-0.791260
25180		-1.341648	-2.365971	1.581209	-0.911239	0.702699	-0.225730	0.199707	1.119629	-0.773682
25181		-1.202840	-0.645255	1.888456	-1.028225	0.477514	-0.278391	0.209229	1.133301	-0.761475
25182		-0.629235	1.144428	2.053615	-1.132052	0.303485	-0.343174	0.197266	1.142090	-0.749756
25183		-0.866021	2.706140	2.031183	-1.302007	-0.000774	-0.544066	0.196045	1.158936	-0.730957
25184		-1.174211	3.889555	1.769786	-1.439215	-0.191399	-0.676448	0.184326	1.173096	-0.717041
25185		-1.187879	4.330534	1.046161	-1.410702	-0.290567	-0.663462	0.176270	1.176270	-0.698975
25186		-0.888430	4.758983	1.695049	-1.099356	-0.269667	-0.524251	0.164063	1.191162	-0.682861
25187		-0.159006	4.707339	1.855641	-0.668640	-0.082904	-0.344453	0.164307	1.196289	-0.677002
25188		0.760657	4.069772	1.633761	-0.294955	0.120055	-0.241018	0.159912	1.194092	-0.675537
25189		1.865042	3.483537	1.481241	-0.030779	0.185827	-0.083254	0.160156	1.203369	-0.676270
25190		2.409444	2.694801	1.020904	0.125222	-0.046341	-0.063467	0.150146	1.196777	-0.683350
25191		1.531576	1.756708	0.817074	0.267152	-0.441668	-0.069338	0.159180	1.195801	-0.689697
25192		0.136919	0.662366	1.554375	0.295710	-0.851210	0.026498	0.152588	1.189453	-0.692627
25193		-1.596320	-0.558061	3.185403	0.254844	-1.089562	0.261961	0.141113	1.190674	-0.707520
25194		-3.928532	-2.345894	5.987636	0.468670	-1.038910	0.570353	0.150391	1.190186	-0.714844
25195		-5.905712	-3.852142	10.100839	1.049830	-0.564691	0.792848	0.155518	1.186768	-0.727783
25196		-5.683626	-5.649037	13.630405	0.964008	0.100538	1.169472	0.159912	1.168457	-0.739258
25197		-2.351076	-14.482588	15.488360	-1.412850	0.565122	1.914006	0.186035	1.171875	-0.726807
25198		2.134959	-21.814692	9.039726	-2.318284	0.070234	2.281411	0.210938	1.188965	-0.703369
25199		2.000061	-18.485344	8.269443	-1.058622	-0.565442	1.616161	0.221191	1.190674	-0.700928
25200		-1.432485	-19.201763	10.232484	-0.586168	-0.645865	1.172154	0.236328	1.190186	-0.691162
25201		-5.057841	-19.221163	10.161278	-0.373041	-0.590748	0.665131	0.237793	1.189209	-0.686523
25202		-3.670073	-19.592926	10.066142	0.047421	-0.565436	0.209267	0.250977	1.188477	-0.691162
25203		-0.826630	-19.405834	10.347720	0.393592	-0.554089	-0.131633	0.234863	1.183594	-0.693604
25204		-0.251067	-19.338606	10.512734	0.392953	-0.470343	-0.292090	0.231201	1.195068	-0.700928
25205		-1.428050	-19.379717	10.210746	0.247985	-0.360466	-0.392428	0.215332	1.189453	-0.709961
25206		-2.682880	-19.814785	9.458444	0.093438	-0.240796	-0.508330	0.213135	1.185059	-0.704834
25207		-3.334627	-20.007948	8.383934	0.049552	-0.242745	-0.691248	0.201416	1.189697	-0.712402
25208		-3.855263	-19.253601	7.090461	0.151583	-0.407694	-0.914541	0.182617	1.174805	-0.716064
25209		-4.712230	-18.251133	5.866925	0.380258	-0.614596	-0.997504	0.170654	1.187012	-0.709961
25210		-5.007325	-15.915459	5.289181	0.700931	-0.814725	-0.886063	0.150635	1.180664	-0.722168
25211		-4.220199	-13.226740	5.120368	0.904346	-0.912782	-0.628279	0.143066	1.176514	-0.721680
25212		-2.944556	-10.926224	4.516058	0.939419	-1.011772	-0.393239	0.132080	1.169434	-0.741699
25213		-1.819150	-9.394192	4.156032	0.832299	-1.118080	-0.186980	0.121826	1.158936	-0.749756
25214		-1.086810	-8.070528	3.319642	0.684359	-1.158982	0.009790	0.114014	1.159180	-0.758057
25215		-0.482466	-7.025939	2.739057	0.469352	-1.070299	0.211887	0.107178	1.151611	-0.747803
25216		0.484876	-5.759255	1.874833	0.121486	-0.901267	0.373960	0.105225	1.154785	-0.751465
25217		0.961456	-4.608910	1.297389	-0.261469	-0.713670	0.539792	0.109863	1.157471	-0.748535
25218		1.581620	-3.374551	1.088851	-0.567441	-0.573462	0.619928	0.108643	1.144043	-0.744141
25219		1.532652	-2.065453	1.373890	-0.787996	-0.409844	0.694594	0.118408	1.157227	-0.738037
25220		1.452430	-0.424628	1.854242	-0.864175	-0.269004	0.810110	0.125244	1.170898	-0.725098
25221		1.564313	1.138372	2.121012	-0.946911	-0.104747	0.935484	0.134277	1.177734	-0.706055
25222		1.469982	2.416725	2.172053	-0.966987	0.060788	0.952666	0.149902	1.182129	-0.695801
25223		1.492213	3.438254	2.627810	-0.908327	0.120748	0.829326	0.161133	1.185547	-0.684570
25224		1.400945	4.173149	2.681742	-0.703482	0.052284	0.620416	0.161621	1.189697	-0.677734
25225		1.099388	4.486910	2.376687	-0.443083	-0.044354	0.363244	0.156738	1.191650	-0.668213
25226		0.892439	4.666562	1.895731	-0.198552	-0.052545	0.134536	0.167969	1.196045	-0.674561
25227		0.841680	4.253680	1.047279	0.014575	0.082807	-0.019525	0.167480	1.192139	-0.679199
25228		1.143627	3.381033	0.358862	0.114652	0.333904	-0.110556	0.169678	1.192627	-0.673340
25229		1.618289	2.378358	0.295116	0.178220	0.624033	-0.209699	0.170898	1.192383	-0.681152
25230		2.134475	1.137606	0.189348	0.260651	0.781916	-0.373961	0.166504	1.197266	-0.685547
25231		2.589707	-0.619934	1.202154	0.303451	0.919954	-0.620420	0.170166	1.191650	-0.696289
25232		3.455138	-3.060344	5.254444	0.798781	0.767486	-0.957467	0.153076	1.195068	-0.703613
25233		4.754696	-5.150546	11.096922	1.346557	0.164810	-1.099625	0.150391	1.187988	-0.723877
25234		2.150045	-8.764815	15.144328	0.566030	-0.489890	-1.318326	0.127686	1.182373	-0.724854
25235		-6.563977	-21.371082	14.436392	-2.784200	-0.460145	-1.782770	0.100342	1.200928	-0.695557
25236		-8.703671	-19.199248	7.415406	-1.873168	0.027169	-1.582146	0.080811	1.218750	-0.672852
25237		-5.261280	-14.788705	8.918854	-0.671251	0.497914	-1.010558	0.074463	1.216797	-0.666992
25238		-1.956352	-16.783381	10.657460	-0.315129	0.569566	-0.541828	0.064941	1.221191	-0.669189
25239		2.987098	-19.925429	9.557181	-0.051934	0.606815	0.145100	0.069580	1.221436	-0.672363
25240		2.580067	-18.261470	9.789673	-0.013516	0.641528	0.562930	0.075195	1.219971	-0.677734
25241		-0.392760	-19.922871	9.629282	-0.012446	0.645893	0.522134	0.097656	1.218018	-0.674805
25242		-1.111606	-20.726345	9.622814	0.092686	0.711772	0.443522	0.100830	1.218994	-0.669678
25243		-0.498299	-20.267135	9.471857	0.105220	0.726458	0.188719	0.108154	1.221680	-0.674072
25244		0.010526	-19.815665	8.558798	0.044278	0.802637	-0.039130	0.115967	1.208008	-0.676025
25245		0.924220	-19.720923	7.242904	0.050464	1.025113	-0.062582	0.126709	1.211182	-0.664795
25246		1.225513	-19.064131	6.060327	0.251107	1.213932	-0.009255	0.130615	1.214355	-0.671143
25247		1.109762	-17.637338	5.569041	0.593977	1.296397	0.001300	0.139404	1.210449	-0.661377
25248		0.452525	-15.444231	5.483027	0.933586	1.352992	-0.020853	0.156494	1.205078	-0.675537
25249		-0.491778	-13.307197	4.803099	1.158706	1.343122	-0.101006	0.154053	1.195068	-0.692627
25250		-1.534405	-11.797896	4.413963	1.245484	1.320450	-0.167017	0.169678	1.187256	-0.689453
25251		-2.279254	-10.589142	3.680218	1.190839	1.184286	-0.235224	0.171631	1.178467	-0.716309
25252		-2.587838	-9.301848	3.259111	1.032713	1.071524	-0.242558	0.169434	1.173096	-0.715332
25253		-2.579396	-7.699892	2.852748	0.795626	0.926636	-0.174511	0.174805	1.168945	-0.719482
25254		-2.425521	-5.866022	2.095771	0.375979	0.781801	-0.101501	0.177002	1.163574	-0.714844
25255		-2.953396	-4.276835	1.417782	-0.269403	0.613603	-0.044483	0.184570	1.168701	-0.713379
25256		-2.755767	-2.240426	1.133287	-0.795541	0.450824	-0.031122	0.187988	1.172119	-0.707031
25257		-2.334726	-0.251335	1.116365	-1.242900	0.266808	-0.066876	0.197266	1.182373	-0.682373
25258		-1.937131	1.569542	1.026703	-1.574167	0.060557	-0.209166	0.178711	1.195068	-0.671631
25259		-2.366696	2.809202	1.017283	-1.726819	-0.138090	-0.383111	0.183105	1.204834	-0.646240
25260		-2.048234	3.655972	0.972786	-1.664835	-0.364663	-0.499331	0.178223	1.223389	-0.630127
25261		-1.395875	3.925546	1.306322	-1.226625	-0.495017	-0.476382	0.160889	1.225098	-0.606201
25262		-0.281598	4.271022	1.822365	-0.658493	-0.554665	-0.361853	0.162109	1.222412	-0.607666
25263		0.685051	4.232948	1.906877	-0.214384	-0.509651	-0.239551	0.146484	1.238037	-0.608154
25264		1.452324	3.938542	1.471597	0.019843	-0.366815	-0.119228	0.149902	1.229248	-0.599609
25265		1.999885	3.508534	1.077123	0.188750	-0.378158	-0.094136	0.135254	1.229004	-0.609863
25266		1.806114	3.213392	0.703071	0.465003	-0.540701	-0.141731	0.140625	1.233887	-0.623779
25267		1.010801	2.382264	0.556498	0.806252	-0.737000	-0.148803	0.129395	1.224854	-0.632813
25268		-0.168995	1.048320	1.869296	1.051220	-0.836499	-0.036853	0.125244	1.217529	-0.653564
25269		-1.443033	-1.129374	4.168388	1.305631	-0.788020	0.240084	0.125977	1.209473	-0.675537
25270		-2.701764	-4.336556	8.174325	1.840527	-0.342926	0.621773	0.130371	1.200928	-0.699951
25271		-3.425822	-7.100720	12.143503	1.810997	0.285757	1.081756	0.143555	1.184326	-0.714111
25272		-1.978426	-14.550480	12.679257	-0.289538	0.854271	2.053627	0.173584	1.179199	-0.709473
25273		2.355245	-18.100976	7.846394	-1.466190	0.445751	2.468848	0.204102	1.190430	-0.703369
25274		0.242775	-15.161972	7.938551	-0.707995	-0.093502	1.849429	0.226807	1.186523	-0.697754
25275		-2.814729	-16.696028	10.474905	-0.546998	-0.166479	1.224899	0.235352	1.191650	-0.700195
25276		-5.606359	-18.019937	10.618007	-0.400229	-0.029203	0.609573	0.248779	1.189209	-0.680908
25277		-6.391192	-19.504543	10.372863	0.046918	0.015267	0.018313	0.250488	1.188965	-0.692871
25278		-2.099836	-18.620639	10.678307	0.410246	0.080616	-0.290689	0.244629	1.185059	-0.695557
25279		0.295513	-20.031290	10.425726	0.702757	-0.062289	-0.458985	0.232910	1.189453	-0.705811
25280		-1.148106	-19.421994	10.884276	0.719738	-0.132001	-0.393158	0.232910	1.184570	-0.719727
25281		-3.694061	-19.610217	10.390982	0.525164	-0.206770	-0.274163	0.225830	1.173584	-0.716064
25282		-5.410626	-19.512662	9.384550	0.339024	-0.357748	-0.248796	0.221924	1.170166	-0.728027
25283		-6.707093	-19.146439	8.011311	0.311040	-0.583840	-0.315746	0.213379	1.167236	-0.723633
25284		-7.578560	-17.312779	6.578032	0.495662	-0.853649	-0.411638	0.197266	1.166016	-0.728516
25285		-6.781542	-14.580345	5.829662	0.652495	-1.135971	-0.422399	0.177490	1.159912	-0.740234
25286		-5.154841	-12.722982	5.672338	0.674213	-1.334754	-0.354713	0.172119	1.153320	-0.753174
25287		-3.123414	-11.602391	5.436504	0.619026	-1.464737	-0.257567	0.165771	1.152100	-0.754883
25288		-1.359265	-10.557003	4.913590	0.538439	-1.534727	-0.191453	0.148926	1.146484	-0.756348
25289		0.098846	-9.597837	4.341352	0.462578	-1.478282	-0.134543	0.129883	1.145996	-0.770020
25290		1.148473	-8.589203	3.617539	0.366391	-1.309902	-0.076476	0.121582	1.145996	-0.770996
25291		1.889407	-7.603741	3.022058	0.244146	-1.147821	-0.025920	0.120605	1.143066	-0.774902
25292		2.364010	-6.779867	2.259180	0.156806	-0.966347	0.017119	0.112549	1.144287	-0.770752
25293		2.196511	-5.993143	1.828055	0.088743	-0.791359	0.088087	0.103516	1.136475	-0.774658
25294		1.774027	-4.862771	1.122688	-0.115349	-0.674690	0.183222	0.099609	1.141846	-0.770264
25295		1.165983	-3.275490	1.114574	-0.475891	-0.545394	0.300762	0.105957	1.144043	-0.762939
25296		0.799623	-1.684446	1.219979	-0.769191	-0.327327	0.542474	0.104248	1.149902	-0.749756
25297		0.229548	0.332996	1.177860	-1.099465	-0.121772	0.668536	0.119385	1.165527	-0.732666
25298		0.269770	2.228106	0.944323	-1.244093	0.107599	0.756042	0.123535	1.170410	-0.713867
25299		0.445856	3.872118	1.053310	-1.221821	0.270424	0.716155	0.136230	1.179199	-0.700439
25300		0.722242	4.833357	0.686407	-0.971728	0.347456	0.574722	0.141113	1.189453	-0.697021
25301		1.596659	4.890497	1.027157	-0.362070	0.368626	0.401761	0.160889	1.181152	-0.703125
25302		1.985260	4.452854	1.475984	0.205263	0.259245	0.165036	0.157715	1.180176	-0.696045
25303		1.499984	3.635170	1.359111	0.448849	0.144031	-0.074811	0.157227	1.183105	-0.693848
25304		0.822737	2.836818	0.873418	0.480435	0.177745	-0.226688	0.152344	1.185059	-0.710449
25305		0.303242	2.391183	0.358776	0.543921	0.315136	-0.314652	0.148682	1.177246	-0.721680
25306		0.187065	1.450236	1.946522	0.719138	0.442137	-0.384040	0.145996	1.169434	-0.729980
25307		1.129128	-0.129657	6.689436	0.985992	0.345225	-0.532428	0.139648	1.171387	-0.745605
25308		2.497823	-1.352509	11.373282	1.175502	-0.346305	-0.608016	0.123779	1.160645	-0.759521
25309		0.529133	-4.238578	12.202026	0.946647	-0.870713	-0.800131	0.116943	1.152344	-0.766113
25310		-6.369285	-14.189390	15.962008	-1.066735	-1.029511	-1.265683	0.094727	1.163574	-0.765137
25311		-9.398712	-23.287931	7.771229	-2.578718	-0.693910	-1.574042	0.065430	1.187012	-0.735352
25312		-3.846604	-14.639156	6.965337	-1.213304	-0.073602	-1.211211	0.052979	1.187744	-0.727051
25313		1.277422	-17.442959	9.925485	-0.898398	0.061320	-0.857551	0.041260	1.199463	-0.713379
25314		6.797786	-20.132289	9.216102	-0.554636	0.039588	-0.121097	0.040283	1.204346	-0.722900
25315		7.068401	-20.817096	9.034212	-0.022794	0.232682	0.384893	0.052246	1.197754	-0.703613
25316		2.307533	-20.477593	10.286768	0.172240	0.276051	0.388831	0.055176	1.201172	-0.708984
25317		-1.194037	-22.058216	10.521732	0.352778	0.303086	0.168294	0.060059	1.203613	-0.710693
25318		-1.723364	-21.146953	10.288832	0.511632	0.348902	-0.030630	0.065186	1.196289	-0.724121
25319		-0.043960	-20.226118	9.392331	0.521013	0.409553	-0.150533	0.061279	1.179199	-0.728760
25320		1.992334	-19.505217	8.303422	0.515175	0.595886	-0.096930	0.072021	1.190430	-0.741699
25321		2.665948	-18.318121	7.120334	0.642335	0.818293	0.019705	0.072754	1.182129	-0.739990
25322		1.812508	-16.588527	6.535874	0.868109	1.004954	0.105431	0.080566	1.173584	-0.748779
25323		0.561151	-14.837733	6.527152	1.087272	1.119802	0.143144	0.091064	1.162109	-0.756836
25324		-0.498260	-12.671494	6.062354	1.208658	1.201644	0.058249	0.098877	1.151367	-0.768799
25325		-1.239445	-10.499618	5.385953	1.208846	1.322480	-0.057678	0.117188	1.147461	-0.783936
25326		-1.696189	-8.693640	4.796608	0.976057	1.380056	-0.187425	0.119385	1.135498	-0.789795
25327		-1.931939	-7.293753	4.204507	0.588739	1.365038	-0.262288	0.136475	1.140869	-0.788574
25328		-2.087819	-5.849159	3.642662	0.254905	1.235940	-0.243562	0.131104	1.146240	-0.788330
25329		-2.247863	-4.496968	2.638619	-0.258757	1.091232	-0.180049	0.134766	1.140381	-0.774658
25330		-2.513610	-3.404163	1.509745	-0.638470	0.906630	-0.114883	0.157471	1.141357	-0.771729
25331		-2.299754	-2.341366	1.118977	-0.795307	0.737194	-0.057294	0.154541	1.155762	-0.760498
25332		-1.869373	-1.051542	1.560033	-0.841114	0.537880	-0.073937	0.159424	1.151855	-0.746582
25333		-1.203018	0.472791	1.900374	-0.975794	0.298753	-0.200566	0.162598	1.173340	-0.740967
25334		-1.043795	1.809323	1.759675	-1.206868	0.057865	-0.334003	0.156494	1.177979	-0.708252
25335		-1.003165	3.071896	1.382397	-1.450151	-0.257751	-0.505912	0.145020	1.181152	-0.702637
25336		-1.150301	3.902027	0.505670	-1.493229	-0.455284	-0.507396	0.135498	1.210449	-0.687500
25337		-0.954896	4.287749	0.502205	-1.197828	-0.568644	-0.370840	0.125244	1.218018	-0.665771
25338		-0.555679	4.444679	0.814290	-0.670977	-0.598042	-0.158238	0.121826	1.216797	-0.657471
25339		-0.002945	3.759013	1.017657	-0.127931	-0.458046	0.032917	0.118408	1.217041	-0.663818
25340		1.110667	2.848094	1.137377	0.269038	-0.297265	0.148617	0.109863	1.213867	-0.662354
25341		1.753288	2.136274	0.813812	0.547323	-0.293113	0.139061	0.116455	1.207520	-0.675781
25342		1.318311	1.449022	0.861305	0.803669	-0.476369	0.045593	0.114258	1.208008	-0.692871
25343		0.000330	0.340137	2.571841	1.129253	-0.675710	0.015841	0.117920	1.200684	-0.711914
25344		-1.158248	-1.270371	6.266215	1.645438	-0.576624	0.147455	0.105957	1.189941	-0.735840
25345		-1.670302	-2.657176	9.463258	2.012876	0.090693	0.340263	0.113037	1.171143	-0.761230
25346		0.101991	-4.946960	11.407246	1.760580	0.644835	0.691902	0.126709	1.159424	-0.779297
25347		2.533972	-11.721356	14.085678	0.346170	0.722019	1.201040	0.150635	1.155518	-0.781738
25348		2.342192	-19.140144	7.677344	-1.240043	0.204169	1.703777	0.164307	1.153076	-0.778320
25349		-0.183749	-13.458326	6.343074	-0.496987	-0.476753	1.360404	0.177246	1.161865	-0.770752
25350		-4.588257	-13.033968	9.068665	-0.556540	-0.594025	1.008729	0.179199	1.170166	-0.771240
25351		-8.481151	-15.680371	10.617294	-0.686699	-0.432926	0.471168	0.181396	1.171631	-0.770752
25352		-7.853081	-18.393295	10.939014	-0.440062	-0.299413	0.109910	0.183594	1.178711	-0.768066
25353		-3.334917	-18.607259	11.980926	-0.093167	-0.290814	-0.026585	0.182129	1.175049	-0.760742
25354		-0.484274	-19.999209	12.528775	0.052244	-0.354003	-0.001343	0.181641	1.175049	-0.760742
25355		1.227026	-20.476335	12.654497	0.268705	-0.503952	0.114976	0.170166	1.170410	-0.769287
25356		-0.123747	-19.610199	11.987092	0.269872	-0.645263	0.296983	0.165771	1.165771	-0.777100
25357		-3.340743	-19.201765	10.560443	0.168604	-0.781998	0.216606	0.167480	1.166992	-0.782959
25358		-5.468097	-18.405698	9.151385	0.186610	-0.894258	0.015776	0.156494	1.165283	-0.776855
25359		-5.942469	-16.955447	7.672964	0.320362	-1.034927	-0.168777	0.160400	1.161865	-0.785889
25360		-5.154682	-14.767653	7.097456	0.443775	-1.202697	-0.195112	0.140381	1.160400	-0.789307
25361		-3.892762	-13.010462	6.679035	0.514381	-1.259859	-0.098664	0.133057	1.156494	-0.783691
25362		-2.015163	-11.619360	5.933288	0.498341	-1.240566	0.022858	0.116699	1.151367	-0.796875
25363		-0.401500	-10.564857	5.270301	0.480597	-1.200928	0.120558	0.119385	1.146973	-0.794189
25364		0.783306	-9.602256	4.680219	0.475632	-1.104655	0.141452	0.107422	1.144043	-0.810059
25365		1.501384	-8.354259	4.101934	0.505717	-0.939446	0.140638	0.105469	1.137939	-0.811035
25366		2.082455	-6.891607	3.629686	0.438616	-0.740505	0.094630	0.100586	1.140381	-0.808350
25367		2.717864	-5.571002	3.549556	0.285452	-0.466740	0.045365	0.096436	1.135986	-0.811279
25368		3.123774	-4.133143	2.820808	-0.046217	-0.132564	-0.021727	0.099365	1.137207	-0.816650
25369		3.079405	-2.907370	2.268692	-0.286661	0.238544	-0.043389	0.093750	1.145752	-0.815186
25370		2.671316	-1.668148	1.720159	-0.403415	0.447791	-0.016286	0.102295	1.144287	-0.799805
25371		1.889155	-0.316179	1.351111	-0.564398	0.550467	0.106668	0.111816	1.146484	-0.792725
25372		1.503260	1.220521	1.115464	-0.766629	0.632053	0.309708	0.111084	1.152588	-0.779541
25373		0.894915	2.919386	0.999386	-1.029303	0.615199	0.380940	0.124756	1.162354	-0.773926
25374		0.095250	3.843478	0.186274	-1.103228	0.630696	0.318630	0.137207	1.164063	-0.760986
25375		-0.446612	4.127495	-0.145505	-0.921401	0.678006	0.191857	0.143799	1.177490	-0.742676
25376		-0.448869	4.001038	-0.221825	-0.595525	0.657306	0.068074	0.146729	1.183350	-0.746338
25377		-0.637886	3.135411	-0.876186	-0.245585	0.627376	-0.062834	0.148438	1.183350	-0.738037
25378		-0.724517	1.723679	-0.877448	0.074436	0.647793	-0.163661	0.158936	1.187500	-0.733154
25379		-0.396570	0.342151	-0.732319	0.287525	0.698116	-0.248601	0.158203	1.185303	-0.745361
25380		-0.100423	-1.041700	-0.615957	0.435363	0.835836	-0.365637	0.161133	1.189209	-0.750977
25381		0.695236	-2.322317	1.326226	0.437197	0.973408	-0.499254	0.156494	1.181152	-0.758545
25382		2.413023	-3.417141	6.226853	0.623974	0.865937	-0.608460	0.157471	1.180420	-0.767090
25383		3.906495	-3.686620	12.263077	0.824996	0.155053	-0.559263	0.157227	1.173584	-0.772949
25384		1.249249	-5.802519	15.192359	0.366944	-0.592684	-0.722318	0.129883	1.173828	-0.794189
25385		-7.281500	-18.688029	17.839495	-2.523605	-0.835468	-1.171263	0.118896	1.199951	-0.750977
25386		-10.505862	-20.136600	8.443079	-2.249854	-0.640065	-1.266157	0.094727	1.206787	-0.731689
25387		-6.919938	-12.416554	8.627260	-0.619570	-0.315600	-0.825960	0.085449	1.208496	-0.726074
25388		-3.036461	-15.159214	9.995725	-0.460098	-0.329465	-0.537750	0.079346	1.217773	-0.725342
25389		3.591100	-18.956962	9.572202	-0.190257	-0.260548	0.124106	0.070801	1.226074	-0.727295
25390		6.250313	-18.832912	10.094546	0.074859	-0.156138	0.529041	0.079102	1.221191	-0.721680
25391		3.209477	-18.215824	10.994697	0.231087	-0.153509	0.403849	0.083008	1.215088	-0.728760
25392		0.430678	-19.017782	11.009617	0.393125	-0.060363	0.271019	0.086670	1.217285	-0.740723
25393		0.032174	-18.485495	10.614444	0.495583	0.091721	0.173636	0.091064	1.212891	-0.745361
25394		0.814107	-18.106068	9.580914	0.491303	0.261445	0.017730	0.090088	1.216797	-0.743408
25395		1.809034	-17.695785	8.489260	0.514381	0.507922	-0.030008	0.090088	1.204590	-0.750977
25396		2.136727	-17.139420	7.785225	0.650786	0.711635	0.015674	0.106201	1.197266	-0.754639
25397		1.617021	-15.925176	7.084136	0.863870	0.845688	0.025544	0.104980	1.197266	-0.768066
25398		0.735055	-14.376215	6.671949	1.085171	0.983532	0.037188	0.104980	1.179688	-0.771973
25399		0.108041	-12.689091	6.263546	1.238642	1.129095	-0.009189	0.126465	1.168457	-0.785156
25400		-0.311858	-10.914981	5.359541	1.262051	1.238766	-0.098978	0.131348	1.165771	-0.801758
25401		-0.706707	-9.482377	4.723100	1.167142	1.265679	-0.187206	0.143066	1.162109	-0.802490
25402		-1.090317	-8.086159	4.293401	0.913903	1.229703	-0.240025	0.151611	1.151123	-0.805664
25403		-1.095385	-6.562784	3.236817	0.604179	1.177501	-0.242827	0.159424	1.141113	-0.814697
25404		-1.136408	-5.438396	2.701242	0.272554	1.061380	-0.221165	0.160645	1.147705	-0.815186
25405		-1.403001	-4.375768	2.036448	-0.112698	0.914639	-0.145659	0.161865	1.144043	-0.809814
25406		-1.420543	-2.928836	1.529336	-0.601689	0.804358	-0.081037	0.167236	1.151855	-0.792725
25407		-1.301362	-1.287804	1.363130	-1.010145	0.635618	-0.124768	0.171143	1.155029	-0.781250
25408		-1.358059	0.255183	1.154073	-1.314392	0.448705	-0.166278	0.179199	1.178711	-0.767090
25409		-0.666514	1.345951	1.086753	-1.418757	0.241374	-0.222292	0.177246	1.180176	-0.750000
25410		-1.229394	2.272488	1.318675	-1.330917	-0.073632	-0.377937	0.173340	1.186768	-0.719482
25411		-1.404562	2.999233	1.494592	-1.109189	-0.257079	-0.423619	0.157471	1.200195	-0.718262
25412		-1.494171	3.458611	1.717464	-0.820136	-0.390653	-0.437103	0.151611	1.205566	-0.707031
25413		-1.515984	3.767137	2.526855	-0.362827	-0.416851	-0.397308	0.155273	1.218994	-0.697754
25414		-0.831099	4.096482	2.421308	-0.074887	-0.301281	-0.296108	0.147461	1.215576	-0.710449
25415		0.506058	4.079751	1.775647	0.018737	-0.172790	-0.188043	0.138184	1.211426	-0.698975
25416		1.693759	3.878221	1.240558	0.042066	-0.215044	-0.139027	0.133789	1.214111	-0.711914
25417		2.135030	3.438726	0.784142	0.054745	-0.512328	-0.169407	0.130859	1.216797	-0.714111
25418		1.106536	2.282816	1.296421	0.116901	-0.833431	-0.192825	0.118164	1.218018	-0.721191
25419		-0.638341	0.714321	4.347178	0.367395	-0.831470	-0.101088	0.114990	1.212158	-0.727295
25420		-2.293193	-1.822492	7.578713	1.109333	-0.454346	0.071674	0.110352	1.209717	-0.751953
25421		-2.781776	-3.952221	10.770388	1.321548	0.135852	0.281461	0.122070	1.190674	-0.766602
25422		-1.085307	-9.522134	15.101013	0.337240	0.596747	0.818199	0.133789	1.194336	-0.765137
25423		1.930120	-22.254655	12.415374	-2.501764	0.775485	1.831529	0.158691	1.212646	-0.743164
25424		1.606565	-18.405839	7.272033	-1.532324	-0.012611	1.811333	0.180664	1.222412	-0.723389
25425		-1.601167	-14.806955	9.093687	-0.708362	-0.432566	1.358716	0.201416	1.223389	-0.714111
25426		-6.419766	-16.710986	10.311617	-0.572452	-0.460558	0.959115	0.199463	1.228027	-0.712402
25427		-8.843128	-18.098694	10.059863	-0.237581	-0.412868	0.446240	0.202393	1.222168	-0.718018
25428		-5.237339	-18.499645	10.628976	0.067741	-0.456366	0.032262	0.202148	1.227051	-0.729004
25429		-1.466381	-18.577137	11.627741	0.131556	-0.336378	0.016210	0.192627	1.223389	-0.728516
25430		1.216623	-19.525168	11.663604	0.235180	-0.289815	0.038328	0.195313	1.225098	-0.730469
25431		1.793079	-17.771638	10.930151	0.173638	-0.237712	0.074195	0.196533	1.216553	-0.733154
25432		-0.181299	-18.175212	9.713796	-0.014909	-0.202290	0.010461	0.193604	1.216553	-0.733643
25433		-2.414094	-18.321646	8.549104	-0.137345	-0.267347	-0.210657	0.181885	1.212646	-0.728760
25434		-4.179994	-17.687819	7.505035	-0.136766	-0.349380	-0.422174	0.181152	1.223633	-0.719482
25435		-4.927099	-16.895948	6.545345	-0.015407	-0.461307	-0.567953	0.172607	1.215088	-0.720459
25436		-4.662163	-15.438149	6.111462	0.159251	-0.616917	-0.562995	0.161621	1.215088	-0.726318
25437		-3.741759	-13.955539	5.489283	0.312719	-0.735281	-0.401182	0.156982	1.210693	-0.727783
25438		-2.600076	-12.336682	4.682840	0.429844	-0.866525	-0.228914	0.145508	1.213379	-0.727051
25439		-1.874291	-10.895228	3.943362	0.503132	-0.979521	-0.104723	0.140381	1.206299	-0.735596
25440		-1.415896	-9.478240	3.133835	0.527917	-1.010186	0.006126	0.129883	1.200439	-0.738525
25441		-0.832852	-8.216973	2.471871	0.465877	-1.000541	0.116809	0.122559	1.204346	-0.750000
25442		-0.171111	-7.180094	1.960299	0.240838	-0.954848	0.167938	0.108154	1.194824	-0.740234
25443		0.543093	-6.245373	1.303619	-0.059489	-0.826291	0.152101	0.116699	1.204102	-0.741943
25444		0.940197	-5.148333	1.001409	-0.308293	-0.618456	0.177432	0.118164	1.200195	-0.744141
25445		1.517928	-3.563862	0.728958	-0.470070	-0.458041	0.212005	0.115967	1.211182	-0.729492
25446		1.699646	-2.013194	0.895945	-0.625867	-0.258608	0.276535	0.115723	1.210205	-0.720703
25447		2.148988	-0.397660	1.280232	-0.707812	-0.046586	0.398068	0.130859	1.213379	-0.708252
25448		2.343036	1.306543	1.379289	-0.801426	0.140077	0.555858	0.124512	1.222168	-0.691895
25449		2.305371	2.539014	1.786736	-0.773420	0.291301	0.646335	0.136719	1.225830	-0.685303
25450		1.717473	3.613998	2.017344	-0.715606	0.340769	0.639232	0.148926	1.228760	-0.677490
25451		1.229497	4.485152	2.069880	-0.595590	0.260383	0.549928	0.152832	1.235840	-0.673584
25452		0.609930	4.924905	1.806867	-0.438727	0.105827	0.402498	0.159668	1.237305	-0.672363
25453		-0.009063	4.970147	1.295143	-0.195117	-0.039150	0.232986	0.154297	1.243652	-0.670166
25454		-0.411876	4.433820	0.908080	0.079581	-0.069196	0.133567	0.167725	1.238770	-0.671875
25455		-0.522058	3.112538	0.591091	0.357317	0.067281	0.122939	0.165527	1.238037	-0.678223
25456		-0.348487	1.479813	0.800215	0.599417	0.312289	0.088426	0.172363	1.231201	-0.684082
25457		0.208063	-0.107268	1.617806	0.703157	0.503990	-0.022751	0.171143	1.228271	-0.698242
25458		1.396242	-1.652482	4.236060	0.888632	0.760220	-0.239227	0.175781	1.223877	-0.701416
25459		3.674945	-3.329310	10.032041	1.352454	0.716187	-0.414902	0.173584	1.215820	-0.726563
25460		4.245313	-5.261571	13.696370	1.339407	-0.047393	-0.613914	0.159912	1.205322	-0.750244
25461		-1.026513	-13.829848	18.465790	-0.516843	-0.460697	-1.128609	0.149902	1.218018	-0.743652
25462		-8.394065	-27.409831	12.356666	-2.817953	-0.414155	-1.631499	0.130371	1.246094	-0.712402
25463		-6.024516	-17.054900	8.807210	-0.949725	0.020792	-1.171339	0.105225	1.253174	-0.710938
25464		-2.877921	-16.776113	9.863015	-0.106426	0.219424	-1.012611	0.092773	1.240967	-0.702393
25465		2.521976	-18.402759	9.324265	0.295673	0.184800	-0.610090	0.092041	1.247314	-0.711426
25466		4.305388	-18.064837	8.783048	0.442442	0.251564	-0.063825	0.089600	1.239990	-0.717529
25467		1.477617	-19.110617	9.531197	0.451037	0.382316	0.076346	0.090088	1.238037	-0.730713
25468		-0.174788	-21.439307	10.083450	0.516217	0.431309	0.112254	0.103271	1.235107	-0.731445
25469		-0.582695	-21.134616	9.873073	0.521820	0.468518	-0.056600	0.111816	1.227539	-0.733398
25470		-0.143218	-20.589809	9.208715	0.477217	0.532661	-0.279564	0.093994	1.219238	-0.739746
25471		0.866941	-20.059802	7.943004	0.451511	0.727796	-0.305808	0.097168	1.227539	-0.748291
25472		1.423659	-18.785435	6.678588	0.549395	0.962909	-0.201808	0.108887	1.215332	-0.740234
25473		0.905929	-17.028575	5.898087	0.754903	1.121409	-0.042503	0.114502	1.214844	-0.753662
25474		-0.033189	-14.744834	5.788321	1.067174	1.244990	0.088390	0.125244	1.204590	-0.757324
25475		-1.117342	-12.625516	6.108103	1.338909	1.223970	0.131452	0.136230	1.189941	-0.768311
25476		-2.185889	-10.757062	5.843975	1.464150	1.106381	0.146107	0.149658	1.187500	-0.779297
25477		-3.025751	-8.887167	5.295951	1.347261	0.913618	0.100624	0.152344	1.165039	-0.800293
25478		-3.453417	-7.240656	4.787908	1.040315	0.763480	0.054228	0.166504	1.157715	-0.801025
25479		-3.326700	-5.735892	4.167886	0.557120	0.667184	0.022633	0.166260	1.152588	-0.817139
25480		-2.990031	-4.211035	3.232540	0.052848	0.602920	-0.032133	0.169922	1.157227	-0.791992
25481		-2.419121	-2.596446	1.949073	-0.630530	0.551835	-0.059998	0.183838	1.163086	-0.795654
25482		-1.450067	-1.378159	1.280945	-1.138581	0.441756	-0.122410	0.178467	1.167480	-0.773438
25483		-0.907904	-0.393299	1.312156	-1.439570	0.288154	-0.187472	0.178223	1.188721	-0.759033
25484		0.253709	0.733873	1.830823	-1.581575	0.162134	-0.245138	0.172119	1.195068	-0.735352
25485		0.439936	1.872340	2.409222	-1.576249	-0.019682	-0.412015	0.169189	1.206055	-0.716064
25486		0.011732	3.290299	1.955745	-1.585117	-0.182596	-0.566675	0.159668	1.216064	-0.695801
25487		-0.471226	4.190897	1.343501	-1.442523	-0.295582	-0.639192	0.154297	1.234375	-0.677002
25488		-0.437051	4.577990	1.333487	-1.050114	-0.277000	-0.571952	0.145508	1.233398	-0.666504
25489		0.359252	4.470669	1.540448	-0.621548	-0.136652	-0.410278	0.141113	1.240234	-0.655029
25490		1.567573	3.921733	1.584296	-0.260718	0.082841	-0.322556	0.139160	1.244385	-0.656250
25491		2.625742	3.479300	1.154510	0.045668	0.195382	-0.197566	0.135498	1.248535	-0.664551
25492		2.614493	2.956700	1.014308	0.280461	0.121802	-0.242946	0.132813	1.245850	-0.668457
25493		1.646924	2.459310	0.869107	0.535515	-0.100789	-0.305683	0.131836	1.242432	-0.676270
25494		0.261779	1.416515	1.130897	0.669135	-0.493912	-0.271571	0.121826	1.238770	-0.679688
25495		-1.296078	0.006027	2.793336	0.640954	-0.818017	-0.098892	0.114014	1.231445	-0.690918
25496		-3.135816	-2.103688	5.503103	0.855280	-0.623551	0.208302	0.117188	1.233643	-0.710938
25497		-4.534000	-4.823680	8.542213	1.397123	0.008849	0.507003	0.112549	1.213135	-0.738770
25498		-3.960016	-7.306733	12.868481	1.251327	0.493423	0.886415	0.120605	1.214600	-0.755615
25499		-1.646844	-15.610767	16.004742	-0.999279	0.878281	1.761204	0.162598	1.225586	-0.743652
25500		0.632450	-22.180062	10.093155	-2.095947	0.395094	2.467311	0.197021	1.229248	-0.721191
25501		-0.220738	-16.586664	8.285980	-0.904668	-0.268349	1.781258	0.214355	1.237061	-0.710938
25502		-2.731347	-17.262457	10.024910	-0.439726	-0.550556	1.308077	0.224609	1.223877	-0.703125
25503		-6.800437	-17.735162	9.958488	-0.227964	-0.564803	0.913324	0.235107	1.225098	-0.711182
25504		-6.754871	-17.999261	9.231769	0.006618	-0.648351	0.437703	0.232666	1.225342	-0.716797
25505		-3.099914	-19.579441	9.970005	0.336946	-0.654008	0.203475	0.237061	1.225342	-0.714844
25506		-0.547425	-19.407004	10.667394	0.540396	-0.584459	0.027799	0.223145	1.227783	-0.725586
25507		0.350603	-18.140935	10.398415	0.473758	-0.520974	0.050026	0.218262	1.215576	-0.731201
25508		-0.412049	-18.105390	9.792449	0.309919	-0.449898	0.054138	0.217529	1.218750	-0.732666
25509		-1.956614	-18.701364	8.435784	0.145388	-0.477967	-0.105698	0.218506	1.204346	-0.744873
25510		-3.322139	-18.436528	7.442688	0.131475	-0.605564	-0.413430	0.205078	1.208740	-0.739258
25511		-4.289436	-17.455910	6.524932	0.284859	-0.718917	-0.703440	0.193848	1.207764	-0.743652
25512		-4.614629	-15.719493	6.000648	0.581796	-0.815729	-0.840751	0.177002	1.202393	-0.748779
25513		-3.757947	-13.623428	5.955284	0.841440	-0.861216	-0.781097	0.156738	1.197510	-0.757813
25514		-2.265279	-12.136521	5.399666	0.926211	-0.866538	-0.636326	0.151367	1.191406	-0.776855
25515		-0.896281	-10.681167	4.565004	0.953077	-0.881276	-0.451486	0.137207	1.185791	-0.777344
25516		-0.207996	-9.430047	4.119305	0.973982	-0.866229	-0.298781	0.117188	1.178223	-0.795898
25517		0.184582	-8.286635	3.712766	0.926116	-0.789963	-0.196371	0.122803	1.172607	-0.797607
25518		0.587679	-7.102290	3.232776	0.748790	-0.665513	-0.102754	0.114746	1.167969	-0.812988
25519		0.905089	-5.659379	2.730634	0.393230	-0.544533	-0.013515	0.107666	1.159180	-0.809814
25520		1.054577	-3.973432	1.931960	-0.168881	-0.501619	0.078066	0.117188	1.164307	-0.806885
25521		0.808447	-2.239954	1.665491	-0.728692	-0.492948	0.151766	0.098389	1.166748	-0.796875
25522		0.168770	-0.434751	1.989439	-1.134525	-0.475328	0.195937	0.101318	1.180908	-0.781250
25523		-0.478946	1.607926	2.326874	-1.363131	-0.403261	0.273547	0.104492	1.193848	-0.764404
25524		-0.642268	3.425967	2.234592	-1.295461	-0.246089	0.394745	0.112793	1.201172	-0.743652
25525		-0.717183	4.617061	1.823575	-1.100604	-0.072385	0.470645	0.112549	1.203857	-0.729736
25526		-0.579382	5.293344	1.655540	-0.903830	0.080113	0.459517	0.122314	1.213135	-0.708984
25527		0.098702	5.344372	1.953161	-0.538514	0.173088	0.451427	0.123535	1.210938	-0.713623
25528		0.654734	4.738650	2.055561	-0.176967	0.207510	0.377409	0.129639	1.213379	-0.718262
25529		0.576896	4.072392	1.702639	-0.052953	0.116059	0.236562	0.139404	1.224121	-0.714355
25530		0.560538	3.465198	1.095496	0.015778	0.121339	0.115441	0.132813	1.218750	-0.712646
25531		0.822559	2.771908	0.643680	0.218095	0.253646	0.037093	0.139648	1.217041	-0.721436
25532		1.257024	1.971961	1.130712	0.360452	0.443492	-0.038473	0.139648	1.216309	-0.728516
25533		2.082737	0.137608	3.309772	0.737211	0.427284	-0.102603	0.145996	1.210205	-0.741211
25534		3.895647	-2.753880	7.383687	1.124371	-0.142756	-0.171037	0.137939	1.194580	-0.754639
25535		3.384049	-5.443962	9.999451	1.163027	-0.749588	-0.386522	0.125000	1.192627	-0.775146
25536		-0.615139	-12.187919	12.769018	-0.296167	-0.737420	-0.788633	0.107910	1.193115	-0.778076
25537		-5.234950	-23.518412	9.715278	-2.771083	-0.510282	-1.262862	0.093262	1.221680	-0.744385
25538		-2.419758	-16.854274	6.728770	-1.257060	0.020232	-1.141838	0.069580	1.231934	-0.734863
25539		0.121814	-17.158818	9.006261	-0.557295	0.382859	-0.919852	0.071289	1.230957	-0.727783
25540		4.244904	-20.603167	10.774293	-0.459032	0.450608	-0.339632	0.065430	1.244385	-0.724854
25541		5.953965	-21.704575	10.219080	-0.075329	0.419183	-0.146810	0.063232	1.237549	-0.731201
25542		3.103268	-20.758160	10.626527	0.359285	0.471612	-0.010861	0.067627	1.229980	-0.733887
25543		-0.973680	-20.299453	11.197865	0.495093	0.374651	-0.126187	0.070557	1.235840	-0.732910
25544		-2.798761	-20.272704	10.981248	0.616264	0.384251	0.012597	0.076904	1.228271	-0.747070
25545		-1.377134	-19.954526	10.761477	0.625424	0.419911	0.076583	0.078613	1.217773	-0.743164
25546		0.441120	-19.746670	9.936425	0.558766	0.478351	0.090673	0.082031	1.218262	-0.753174
25547		1.250809	-19.125975	8.560142	0.573326	0.644947	0.113036	0.092529	1.207275	-0.760010
25548		1.197716	-17.835836	7.415067	0.709253	0.831659	0.160851	0.101318	1.202637	-0.762695
25549		0.436697	-16.325074	6.503858	0.956798	0.979939	0.137286	0.109863	1.198730	-0.770996
25550		-0.314278	-14.438566	6.405995	1.263064	1.062550	0.082127	0.115479	1.188232	-0.787842
25551		-1.160770	-12.183642	5.836544	1.465989	1.065850	0.001978	0.128174	1.174072	-0.799072
25552		-1.896127	-10.284726	5.244407	1.504255	1.037960	-0.098877	0.138916	1.161133	-0.806885
25553		-2.563492	-8.507072	4.599460	1.307239	0.997363	-0.202430	0.140137	1.155762	-0.820068
25554		-2.831839	-6.808020	3.889061	0.888382	0.942796	-0.267537	0.152344	1.141602	-0.825684
25555		-2.848878	-5.122231	3.227618	0.329534	0.975534	-0.246542	0.156982	1.140869	-0.820313
25556		-2.323225	-3.416943	2.589933	-0.420897	0.955349	-0.135933	0.148926	1.142578	-0.812744
25557		-2.061652	-1.917617	1.846592	-0.984935	0.880747	-0.091026	0.163086	1.159912	-0.804688
25558		-1.838934	-0.593142	1.278503	-1.294317	0.784494	0.028956	0.167480	1.167236	-0.779053
25559		-0.415949	0.336010	1.003159	-1.307838	0.570588	0.086523	0.168945	1.168945	-0.764404
25560		-0.330079	1.010837	1.622935	-1.029017	0.319632	0.064245	0.172852	1.185791	-0.748535
25561		-0.040733	2.039516	2.371135	-0.817900	0.162871	-0.070788	0.173340	1.193115	-0.743652
25562		-0.266029	3.025382	1.983307	-0.826259	-0.048103	-0.310235	0.167480	1.191895	-0.724609
25563		-0.516338	3.804117	1.464267	-0.956978	-0.212187	-0.530929	0.165039	1.196289	-0.715820
25564		-0.384296	3.793094	0.657905	-0.998848	-0.254468	-0.608044	0.150879	1.212402	-0.702637
25565		0.102089	3.314464	1.005657	-0.811830	-0.220403	-0.529793	0.144287	1.212646	-0.692871
25566		0.843397	3.011681	1.142865	-0.495667	-0.114417	-0.367621	0.139160	1.219727	-0.697998
25567		1.411996	2.675094	1.182530	-0.127142	0.081876	-0.207164	0.146484	1.219971	-0.687012
25568		1.873929	2.354457	1.398460	0.192334	0.182929	-0.114102	0.139893	1.220703	-0.698486
25569		1.623738	1.682374	1.215090	0.329432	0.066346	-0.085310	0.133301	1.223145	-0.698486
25570		0.815399	0.815172	1.155143	0.379924	-0.234361	-0.032801	0.135254	1.222656	-0.720703
25571		-0.270915	-0.152168	2.043655	0.345667	-0.642437	0.107918	0.136230	1.213623	-0.712158
25572		-1.680124	-1.549721	4.916700	0.406359	-0.801309	0.412501	0.133545	1.216309	-0.725342
25573		-3.006957	-2.923523	7.574241	0.867640	-0.686373	0.736116	0.137451	1.207520	-0.737793
25574		-3.429258	-3.950887	10.736057	1.016930	-0.147641	0.957763	0.145508	1.193848	-0.767334
25575		-1.992258	-7.978277	13.911100	0.590513	0.325486	1.410465	0.169922	1.190186	-0.768555
25576		0.148652	-18.645904	13.356918	-1.882335	0.497594	2.069872	0.195068	1.208496	-0.750488
25577		-0.732856	-23.068995	8.843751	-1.815712	-0.136100	2.190637	0.215576	1.219971	-0.726074
25578		-2.542906	-18.697591	10.171377	-0.731259	-0.464336	1.582923	0.234375	1.213135	-0.726807
25579		-5.929557	-17.590578	10.805982	-0.212665	-0.498978	1.239052	0.249268	1.216309	-0.723145
25580		-7.903396	-17.731000	9.667020	0.246167	-0.606952	0.773737	0.247803	1.220703	-0.725830
25581		-4.254735	-17.484730	10.067692	0.506721	-0.710134	0.364383	0.249268	1.200684	-0.742920
25582		-2.392589	-18.689941	11.258199	0.592925	-0.793311	0.069491	0.248047	1.205566	-0.748779
25583		-2.337185	-19.311693	11.676102	0.454831	-0.817448	-0.041261	0.238281	1.196533	-0.759033
25584		-2.669210	-19.529268	11.261328	0.264720	-0.737499	0.004954	0.235107	1.191162	-0.760010
25585		-3.559883	-19.574481	9.860397	0.096638	-0.777660	-0.023061	0.221436	1.185547	-0.773926
25586		-4.270442	-19.185522	8.275182	0.028626	-0.932048	-0.185352	0.222412	1.188232	-0.772705
25587		-4.963451	-18.626294	6.993738	0.112453	-1.117886	-0.414930	0.203857	1.192139	-0.770020
25588		-4.948174	-16.710604	5.883924	0.373962	-1.273668	-0.525700	0.186279	1.198975	-0.767822
25589		-3.727928	-14.412950	5.833611	0.644654	-1.339591	-0.487476	0.168457	1.190430	-0.781738
25590		-1.889723	-12.579284	5.752924	0.777947	-1.289666	-0.361641	0.146973	1.174072	-0.788574
25591		-0.142530	-10.996989	5.184478	0.801242	-1.207500	-0.221293	0.146973	1.173828	-0.795898
25592		1.019561	-9.626711	4.641102	0.771840	-1.110820	-0.111297	0.137451	1.162354	-0.801514
25593		1.185637	-8.379420	4.123488	0.679502	-1.000906	-0.044068	0.126709	1.161865	-0.819580
25594		1.163861	-7.279746	3.947489	0.534623	-0.896476	0.033713	0.131104	1.156738	-0.817627
25595		1.274649	-6.043325	3.219589	0.262606	-0.806120	0.099216	0.119873	1.145508	-0.815186
25596		1.055820	-4.815765	2.332883	-0.105174	-0.698244	0.174726	0.115479	1.147461	-0.814209
25597		0.658061	-3.897232	1.281581	-0.291397	-0.585422	0.218663	0.103760	1.159424	-0.813721
25598		0.191117	-2.918466	0.919287	-0.195295	-0.382231	0.237298	0.117432	1.153320	-0.800537
25599		-0.135824	-1.417233	1.582262	-0.164533	-0.221616	0.316488	0.118164	1.154053	-0.817627
25600		-0.311605	0.353909	2.119102	-0.189716	-0.025766	0.449858	0.123291	1.164063	-0.800293
25601		-0.058832	2.183277	1.838530	-0.350299	0.318846	0.559326	0.130615	1.157227	-0.789307
25602		-0.403838	3.591837	1.147903	-0.667105	0.585719	0.532238	0.145996	1.160889	-0.780029
25603		-0.316076	4.348118	0.782894	-0.740515	0.688681	0.418235	0.151855	1.173340	-0.768555
25604		-0.070130	4.725662	0.855241	-0.462544	0.668970	0.298620	0.173584	1.173584	-0.772705
25605		0.619525	4.504020	0.601249	-0.069185	0.423104	0.207995	0.161865	1.168213	-0.766846
25606		1.131310	3.501651	0.492699	0.305159	0.193420	0.164670	0.172119	1.173340	-0.781494
25607		0.904171	2.515216	0.268185	0.673873	0.095758	0.156614	0.171387	1.167236	-0.784180
25608		0.727439	1.863242	0.020960	0.856924	0.150690	0.159120	0.174072	1.157959	-0.791992
25609		0.844875	0.942870	0.185806	0.834295	0.285721	0.138606	0.184082	1.157227	-0.804688
25610		1.964175	-0.977452	2.997524	0.839876	0.327584	0.068644	0.182617	1.150635	-0.817139
25611		3.983521	-2.864655	8.829633	1.239574	-0.090999	-0.023627	0.178711	1.141357	-0.841553
25612		4.186715	-4.345934	13.290252	1.301854	-0.939943	-0.091065	0.172607	1.134521	-0.851074
25613		-0.549627	-10.011537	15.273535	-0.503613	-1.214066	-0.464489	0.146484	1.128662	-0.849365
25614		-6.515684	-13.728130	9.954993	-2.120344	-0.810312	-0.875416	0.130371	1.151855	-0.831055
25615		-2.994751	-8.434608	7.330264	-1.308403	0.051248	-0.573187	0.134277	1.163330	-0.822998
25616		-1.148706	-14.437177	10.379574	-1.126745	0.456735	-0.455996	0.128174	1.174561	-0.807373
25617		3.674367	-20.681658	12.383952	-1.167972	0.562171	-0.193198	0.129639	1.181885	-0.802979
25618		7.203438	-21.770400	11.124271	-0.751337	0.616239	-0.151654	0.141602	1.196289	-0.784668
25619		6.132435	-21.409837	11.035387	-0.109017	0.740605	-0.393536	0.134277	1.191895	-0.790527
25620		2.101717	-20.877308	11.460171	0.291873	0.795496	-0.630354	0.125732	1.186768	-0.785156
25621		-1.786857	-20.380784	11.132707	0.467172	0.815748	-0.746384	0.128418	1.181152	-0.800293
25622		-2.283523	-19.164296	10.381428	0.547179	0.943948	-0.767042	0.121338	1.185791	-0.793457
25623		-1.233427	-18.455440	9.809578	0.520969	1.084871	-0.749357	0.125000	1.182373	-0.801758
25624		-0.563685	-17.767840	8.460584	0.493281	1.270049	-0.659878	0.123535	1.173096	-0.803955
25625		-0.210826	-16.392953	7.533604	0.524408	1.434806	-0.524504	0.135742	1.172607	-0.809326
25626		-0.662424	-15.009542	6.932535	0.596374	1.511510	-0.400610	0.137939	1.163574	-0.811523
25627		-1.170828	-13.473303	6.360737	0.696288	1.542739	-0.332160	0.149902	1.163818	-0.815674
25628		-1.619615	-11.615632	5.540498	0.791097	1.568301	-0.306571	0.156006	1.152344	-0.819092
25629		-1.710762	-9.943813	4.703716	0.791763	1.581716	-0.286977	0.171387	1.146484	-0.829102
25630		-1.734534	-8.396474	4.233229	0.701665	1.523772	-0.302797	0.170898	1.146240	-0.830078
25631		-2.079104	-7.238293	3.811193	0.491577	1.367847	-0.318372	0.184814	1.145996	-0.825928
25632		-2.143482	-5.912451	3.709700	0.092657	1.169624	-0.272233	0.190430	1.134033	-0.827393
25633		-2.013479	-4.522879	3.172650	-0.400493	0.982002	-0.197452	0.201172	1.137939	-0.813232
25634		-2.127584	-3.391983	2.417108	-0.890701	0.859072	-0.112891	0.204834	1.149170	-0.796387
25635		-2.098342	-2.094433	2.113990	-1.158017	0.659763	-0.074122	0.196777	1.164307	-0.780029
25636		-1.913531	-0.675578	2.321299	-1.128327	0.391256	-0.142834	0.215576	1.161133	-0.765381
25637		-2.410098	0.633152	2.562479	-1.051900	0.147957	-0.270900	0.206543	1.182617	-0.759766
25638		-2.510272	1.847772	2.381966	-1.087921	-0.122742	-0.488065	0.197266	1.188721	-0.729492
25639		-2.414745	2.699464	2.153559	-1.176780	-0.311025	-0.700948	0.184814	1.207031	-0.723389
25640		-1.405085	2.977750	1.746551	-1.182701	-0.388077	-0.744984	0.170898	1.208496	-0.706787
25641		-0.021314	3.339573	2.026700	-0.986137	-0.430907	-0.638592	0.166992	1.218750	-0.693848
25642		1.192245	4.434693	1.995163	-0.779862	-0.322443	-0.476647	0.156982	1.224854	-0.692139
25643		2.062500	5.188969	1.670698	-0.473717	-0.135436	-0.369799	0.145996	1.223145	-0.700684
25644		2.842631	5.118393	1.372250	-0.122855	0.046058	-0.296659	0.142822	1.229004	-0.687744
25645		2.834371	3.950720	0.821634	0.116126	-0.108070	-0.264572	0.138672	1.226563	-0.698486
25646		1.558173	2.120118	1.499330	0.333730	-0.426993	-0.221626	0.134766	1.230713	-0.708740
25647		-0.154216	0.140994	3.872833	0.574161	-0.533953	-0.071349	0.129639	1.213379	-0.714355
25648		-1.735511	-1.442566	7.512251	0.983700	-0.438313	0.138626	0.128418	1.219727	-0.729492
25649		-1.582162	-2.746109	9.593482	1.287998	-0.093383	0.385965	0.134521	1.207520	-0.748047
25650		-1.040638	-6.628302	12.691410	0.666731	0.194328	0.807700	0.142334	1.202148	-0.758057
25651		-0.541548	-20.497180	13.316736	-2.538082	0.526170	1.666712	0.167236	1.213379	-0.729248
25652		-2.084995	-20.426316	6.600883	-2.146406	-0.083949	1.703676	0.191162	1.233398	-0.710205
25653		-3.481067	-14.980812	7.544289	-0.932937	-0.477166	1.224838	0.194336	1.238770	-0.702393
25654		-8.560672	-17.162991	9.191087	-0.550102	-0.575568	0.905348	0.200684	1.236084	-0.694092
25655		-10.542187	-17.370293	8.881756	0.034915	-0.605768	0.475601	0.206055	1.241455	-0.700195
25656		-5.745663	-16.329411	9.351457	0.252414	-0.675573	0.161576	0.204102	1.235352	-0.705811
25657		-2.611560	-18.830199	10.264139	0.299362	-0.621490	0.095478	0.201172	1.228271	-0.710693
25658		-0.088361	-19.393172	10.443699	0.261066	-0.549675	0.217349	0.208740	1.227539	-0.713379
25659		0.788349	-19.677598	10.246773	0.170732	-0.423179	0.412991	0.204834	1.222412	-0.718750
25660		-0.880119	-20.478720	9.295426	0.056875	-0.356147	0.443987	0.199951	1.219727	-0.723389
25661		-2.844790	-20.317510	7.885215	0.035476	-0.469350	0.254955	0.205566	1.224121	-0.712646
25662		-4.768995	-19.538265	6.596446	0.102124	-0.643861	0.006019	0.202637	1.221191	-0.718750
25663		-6.007698	-17.994197	5.522760	0.314288	-0.788725	-0.204844	0.197021	1.227295	-0.726807
25664		-5.434988	-15.604774	5.269281	0.576822	-0.981642	-0.272171	0.181396	1.210938	-0.729980
25665		-3.822552	-13.813194	5.473541	0.760097	-1.071979	-0.203285	0.171631	1.202881	-0.736328
25666		-1.906696	-12.153944	5.226131	0.878995	-1.086321	-0.130881	0.163818	1.199707	-0.749023
25667		-0.293870	-10.760495	4.798731	1.022123	-1.057589	-0.068264	0.152100	1.195313	-0.753174
25668		0.704111	-9.538335	4.177691	1.145122	-0.975429	-0.030591	0.151123	1.192871	-0.775146
25669		1.474094	-8.130591	3.420701	1.166699	-0.844012	0.004159	0.147705	1.171875	-0.783936
25670		1.899885	-6.958031	2.712068	0.959832	-0.711259	0.001023	0.132568	1.172363	-0.787354
25671		1.670188	-6.015800	1.607365	0.629447	-0.566271	0.013901	0.132568	1.168457	-0.800049
25672		1.223648	-4.833415	1.277526	0.245474	-0.447342	0.082796	0.133301	1.161377	-0.796875
25673		1.052400	-3.204720	1.831098	-0.125972	-0.262527	0.128374	0.136963	1.163086	-0.796387
25674		1.023728	-1.082677	2.733190	-0.360769	-0.055785	0.194987	0.128418	1.164551	-0.794922
25675		1.046189	1.380241	2.811077	-0.567830	0.210456	0.262167	0.141357	1.177734	-0.776611
25676		1.369730	3.720082	2.282369	-0.871138	0.404072	0.282334	0.152832	1.173340	-0.769531
25677		1.112972	5.205432	1.670173	-1.079524	0.452579	0.202629	0.153809	1.182617	-0.753174
25678		1.011754	6.241447	1.791158	-1.014724	0.377478	0.134301	0.154785	1.191895	-0.742432
25679		0.861271	6.690592	1.618040	-0.793686	0.217084	0.048756	0.162109	1.194824	-0.728516
25680		0.064556	6.418131	1.279069	-0.521961	-0.013489	-0.066581	0.158691	1.203125	-0.727539
25681		-1.135705	5.604389	0.691485	-0.182457	-0.168190	-0.150507	0.157959	1.203369	-0.729980
25682		-1.812314	4.508588	0.094244	0.140742	-0.095481	-0.122366	0.152832	1.203857	-0.732910
25683		-1.716027	2.940688	-0.154821	0.389227	0.058974	-0.070096	0.152100	1.194336	-0.727539
25684		-1.129150	0.932166	0.084999	0.535454	0.321466	-0.099601	0.154053	1.198730	-0.745605
25685		0.449316	-1.463188	2.119174	0.612583	0.513489	-0.231702	0.150391	1.195801	-0.759521
25686		2.139546	-3.890739	5.321504	0.748589	0.379102	-0.416622	0.149170	1.196289	-0.767578
25687		4.124146	-5.858495	11.513251	0.885404	-0.276601	-0.423789	0.139648	1.178223	-0.788330
25688		2.668911	-9.472315	14.329319	0.110866	-0.803760	-0.589977	0.126221	1.189941	-0.785889
25689		-3.804828	-17.482386	14.440189	-2.318823	-0.784050	-1.081415	0.105957	1.197021	-0.756592
25690		-5.906331	-16.471095	9.397468	-1.798104	-0.470618	-1.135123	0.087158	1.218750	-0.743896
25691		-3.327821	-15.086228	8.936945	-0.924889	0.071063	-0.835886	0.078369	1.234619	-0.735596
25692		1.777463	-19.034366	11.331961	-0.649946	0.326331	-0.413286	0.075195	1.228271	-0.726563
25693		5.748333	-20.009272	11.460321	-0.408010	0.385701	-0.169410	0.073486	1.241455	-0.724609
25694		4.947848	-20.247497	10.654294	-0.073490	0.533377	-0.116980	0.078369	1.238525	-0.728027
25695		1.747437	-20.163007	11.205825	0.225833	0.654873	-0.166609	0.074463	1.233887	-0.729004
25696		-0.499237	-20.964438	11.484488	0.368665	0.639014	-0.193011	0.072021	1.223633	-0.736572
25697		-0.522700	-19.965621	10.916031	0.466663	0.663651	-0.158015	0.085938	1.217773	-0.730713
25698		0.168857	-19.503395	10.300974	0.475163	0.663416	-0.139884	0.089844	1.222656	-0.749512
25699		0.259286	-19.431210	8.992395	0.527913	0.744522	-0.060902	0.095215	1.217041	-0.747559
25700		-0.429495	-18.208915	7.908294	0.692885	0.878682	-0.015328	0.100342	1.215088	-0.760986
25701		-1.159501	-16.781368	7.041911	0.880130	0.982280	-0.016179	0.107666	1.205811	-0.765381
25702		-1.538511	-15.360464	6.431756	1.085807	1.059538	-0.026743	0.111328	1.190674	-0.769775
25703		-1.417728	-13.461944	5.558255	1.258299	1.117479	-0.075897	0.125000	1.186279	-0.779541
25704		-1.335296	-11.379802	4.732872	1.330049	1.185458	-0.172208	0.129883	1.175293	-0.792725
25705		-1.215785	-9.663675	4.047301	1.197841	1.276514	-0.231268	0.139160	1.168945	-0.799805
25706		-1.068178	-8.199314	3.167646	0.888742	1.307215	-0.252449	0.140625	1.163818	-0.810791
25707		-1.383364	-6.799465	2.782430	0.465091	1.169499	-0.265847	0.155029	1.151855	-0.805420
25708		-1.595694	-5.400625	2.100675	-0.091648	0.978986	-0.231798	0.161621	1.159424	-0.799072
25709		-1.893082	-4.113976	1.254583	-0.793037	0.840760	-0.154350	0.155762	1.158936	-0.785156
25710		-1.753733	-2.402478	0.720801	-1.275852	0.695529	-0.142409	0.163574	1.170898	-0.766113
25711		-1.637278	-0.923332	0.451045	-1.560252	0.486750	-0.180569	0.168701	1.188721	-0.750977
25712		-1.451391	0.702924	0.650029	-1.650216	0.218238	-0.331040	0.156982	1.198486	-0.729248
25713		-2.248914	1.989755	1.282782	-1.544303	-0.091299	-0.573283	0.159180	1.205811	-0.707031
25714		-2.307521	2.934228	1.392999	-1.242731	-0.338180	-0.747634	0.145752	1.226318	-0.688477
25715		-2.046803	3.518441	2.075989	-0.817251	-0.486699	-0.782502	0.136719	1.231689	-0.677246
25716		-1.178418	4.020427	2.989895	-0.434173	-0.503742	-0.680209	0.125000	1.236084	-0.667969
25717		-0.237452	4.447926	3.152282	-0.251206	-0.368562	-0.506833	0.113770	1.238037	-0.680908
25718		0.976621	4.529552	2.575223	-0.117431	-0.204890	-0.296385	0.098633	1.232422	-0.674805
25719		2.088257	4.011354	1.543622	-0.010371	-0.200765	-0.133610	0.096680	1.234619	-0.675049
25720		2.016728	3.125052	1.194257	0.054178	-0.317468	-0.059863	0.110107	1.236572	-0.681396
25721		1.138606	2.233252	0.495235	0.037249	-0.484719	0.040323	0.097412	1.239502	-0.683838
25722		-0.039574	1.142709	0.420486	0.045063	-0.635550	0.241001	0.104980	1.242920	-0.691650
25723		-1.638706	-0.333481	1.078149	0.146524	-0.820073	0.575624	0.101318	1.239258	-0.690430
25724		-3.255632	-1.505164	2.774090	0.190446	-0.913497	0.962692	0.105469	1.234375	-0.704102
25725		-4.806725	-2.965926	5.548888	0.591543	-0.903606	1.339603	0.120117	1.223145	-0.714600
25726		-5.836372	-3.533478	11.635777	1.180182	-0.363995	1.512589	0.132568	1.219482	-0.733643
25727		-4.082720	-4.749017	13.073743	0.954570	0.372137	1.767099	0.154297	1.209717	-0.743896
25728		1.121616	-12.815889	13.940876	-1.185664	0.359919	2.177470	0.189941	1.220215	-0.721924
25729		2.806285	-23.362228	9.023332	-2.492640	-0.192951	2.083261	0.208252	1.227295	-0.705322
25730		0.625157	-20.659028	9.286161	-1.234069	-0.643187	1.184511	0.214844	1.236816	-0.696289
25731		-2.718704	-20.660206	10.600520	-0.685144	-0.644883	0.739484	0.220703	1.237061	-0.689453
25732		-4.143286	-21.533035	9.402313	0.048398	-0.719235	0.141636	0.215332	1.235840	-0.699951
25733		-1.401635	-19.606115	10.508189	0.401872	-0.730805	-0.012294	0.214600	1.234863	-0.696045
25734		-1.209044	-20.665438	10.994367	0.549430	-0.786828	0.085883	0.207764	1.228516	-0.711914
25735		-2.154795	-19.841968	10.890102	0.461608	-0.781498	0.212190	0.208008	1.231445	-0.719727
25736		-3.656018	-19.644290	10.112892	0.311798	-0.766328	0.285485	0.197021	1.218750	-0.730469
25737		-4.659536	-19.522116	8.953013	0.232242	-0.733386	0.154660	0.204346	1.218018	-0.722412
25738		-5.242109	-19.254517	7.585109	0.315459	-0.778623	-0.160878	0.194336	1.220703	-0.728271
25739		-5.491413	-17.813455	6.681964	0.500718	-0.850378	-0.411565	0.177246	1.215820	-0.748291
25740		-4.440806	-15.933961	6.472546	0.668878	-0.919627	-0.491908	0.171875	1.208496	-0.746094
25741		-2.823238	-14.695075	6.160560	0.770787	-0.961191	-0.478043	0.153809	1.197021	-0.747803
25742		-1.156178	-13.387838	5.997494	0.841689	-0.971603	-0.433025	0.145264	1.194092	-0.767334
25743		-0.010769	-12.204235	5.547189	0.874789	-1.006522	-0.372737	0.142578	1.185547	-0.773682
25744		0.493922	-10.889581	4.939671	0.941097	-0.996939	-0.264360	0.124512	1.179688	-0.782471
25745		0.610809	-9.385484	4.206798	1.017147	-0.940536	-0.166424	0.108887	1.171875	-0.783936
25746		0.706292	-7.902460	3.143377	0.993965	-0.878544	-0.059108	0.107910	1.168213	-0.807617
25747		0.996634	-6.704590	2.156441	0.838090	-0.768423	0.039211	0.096680	1.155029	-0.812744
25748		1.335203	-5.420828	1.815136	0.596508	-0.569854	0.153696	0.108154	1.159668	-0.812012
25749		1.121744	-4.036293	1.516041	0.231315	-0.359254	0.244843	0.098389	1.151855	-0.813232
25750		0.766241	-2.122068	1.484630	-0.188046	-0.103351	0.320142	0.110352	1.152344	-0.808838
25751		0.760469	0.205360	1.539638	-0.533932	0.220482	0.403857	0.109619	1.152100	-0.799561
25752		1.406291	2.616474	1.757586	-0.836302	0.517827	0.512402	0.124268	1.167725	-0.785400
25753		2.240927	4.629990	1.721613	-1.099137	0.704073	0.566428	0.134521	1.167236	-0.766357
25754		2.466719	5.884526	1.087835	-1.295130	0.669508	0.497971	0.143799	1.176025	-0.756836
25755		1.806169	6.373990	0.513791	-1.194022	0.519997	0.326054	0.150635	1.186523	-0.735107
25756		1.153551	6.012119	1.047686	-0.631821	0.363549	0.129247	0.153564	1.190186	-0.735107
25757		0.518220	4.874135	1.487555	-0.039919	0.175475	-0.041068	0.159668	1.190674	-0.730469
25758		-0.241959	3.665572	1.851809	0.290702	-0.074092	-0.162587	0.152100	1.194824	-0.744141
25759		-1.054621	3.273752	1.531313	0.444577	-0.185480	-0.197255	0.152832	1.195557	-0.741455
25760		-1.504487	3.061451	0.587020	0.551890	0.010317	-0.128176	0.149170	1.186768	-0.756104
25761		-1.096693	1.939431	0.701925	0.665167	0.267823	-0.053031	0.151367	1.183838	-0.767822
25762		0.182558	-0.095556	2.557289	0.803691	0.355767	-0.123384	0.143555	1.176514	-0.782715
25763		2.044482	-2.328750	6.471413	0.913074	0.331660	-0.341495	0.145996	1.173340	-0.801270
25764		3.936715	-4.272046	11.419312	1.054566	-0.139075	-0.410045	0.144531	1.176025	-0.815674
25765		2.361308	-8.963908	15.246702	0.112040	-0.656651	-0.652862	0.134033	1.164063	-0.809814
25766		-4.398602	-22.966088	14.918426	-2.782121	-0.791407	-1.168883	0.099365	1.197266	-0.781494
25767		-5.043749	-19.222443	8.371689	-1.884848	-0.284106	-1.076889	0.093750	1.202881	-0.770996
25768		-3.082740	-16.413490	9.449235	-0.686138	0.201811	-0.973578	0.077637	1.206787	-0.766113
25769		1.084163	-19.103613	10.699219	-0.290054	0.273758	-0.614770	0.068604	1.211670	-0.759521
25770		4.551160	-19.493470	10.122799	0.055193	0.198240	-0.183302	0.062012	1.212646	-0.759766
25771		2.860640	-19.236319	9.974813	0.226979	0.290246	0.038813	0.080078	1.207520	-0.775391
25772		0.474057	-21.094618	10.903661	0.375409	0.361642	0.041824	0.083496	1.210938	-0.766602
25773		-0.594148	-20.992085	11.129099	0.510303	0.403311	-0.028950	0.075928	1.200195	-0.779541
25774		-0.180499	-19.958353	10.793882	0.542036	0.475138	-0.192011	0.090576	1.190674	-0.777344
25775		0.897053	-19.404567	9.799142	0.499665	0.662890	-0.301888	0.091553	1.193115	-0.788086
25776		1.609878	-18.386639	8.263725	0.531363	0.951326	-0.334656	0.086182	1.190918	-0.788086
25777		1.598497	-16.862860	7.421539	0.644781	1.194528	-0.336037	0.101074	1.179688	-0.792725
25778		1.084149	-15.417434	6.874701	0.803335	1.362498	-0.301287	0.103516	1.177490	-0.794678
25779		0.108468	-13.415543	6.325905	0.943315	1.489775	-0.303797	0.112549	1.171387	-0.806641
25780		-0.880793	-11.323982	5.854444	1.010433	1.583840	-0.365379	0.121094	1.161865	-0.819336
25781		-1.622746	-9.663469	4.970585	0.934434	1.637588	-0.422198	0.126953	1.159912	-0.814941
25782		-2.068273	-8.214000	4.383252	0.732022	1.617755	-0.496742	0.145264	1.141846	-0.824951
25783		-2.071504	-6.861762	3.748434	0.415878	1.502606	-0.513912	0.140381	1.143799	-0.834229
25784		-2.195710	-5.750102	3.369584	0.016017	1.367554	-0.458449	0.140381	1.144043	-0.820313
25785		-2.376314	-4.647251	2.380451	-0.418840	1.286453	-0.330166	0.154053	1.150146	-0.798828
25786		-2.501328	-3.550083	1.568610	-0.795862	1.070235	-0.222284	0.156982	1.157471	-0.794922
25787		-1.938289	-2.240153	1.325310	-0.941299	0.887669	-0.158030	0.166260	1.157959	-0.779785
25788		-1.327882	-0.974783	1.716756	-1.019171	0.695816	-0.172198	0.171875	1.177734	-0.763916
25789		-1.359968	0.323616	2.332464	-1.065181	0.458362	-0.234583	0.173340	1.183350	-0.749268
25790		-1.421866	1.672583	2.185412	-1.112201	0.127725	-0.406750	0.161621	1.195313	-0.732910
25791		-1.730134	2.908506	1.748091	-1.313002	-0.067206	-0.493316	0.151855	1.193359	-0.716309
25792		-1.742334	3.861144	1.578497	-1.382900	-0.192114	-0.477831	0.149414	1.217773	-0.696777
25793		-1.395987	4.626378	2.105868	-1.129115	-0.191810	-0.368386	0.142090	1.222656	-0.689941
25794		-0.408999	5.033144	1.926800	-0.728296	-0.030319	-0.189713	0.148926	1.221680	-0.677734
25795		0.525883	5.024197	1.785584	-0.357107	0.143306	-0.058949	0.144775	1.233398	-0.675537
25796		1.202788	4.332925	1.696540	-0.040774	0.194640	0.009167	0.143799	1.228027	-0.678467
25797		1.525353	3.651012	0.601300	0.139951	0.002976	0.029400	0.143311	1.230469	-0.686279
25798		1.495518	2.820270	-0.074059	0.181403	-0.352899	0.080750	0.146484	1.226807	-0.694580
25799		0.354253	1.471132	0.051697	0.251450	-0.689143	0.154041	0.140381	1.234375	-0.697510
25800		-1.252352	-0.486451	1.861843	0.450849	-0.860002	0.336898	0.138916	1.219971	-0.708008
25801		-3.127807	-2.565022	5.932091	0.976625	-0.743480	0.640241	0.142090	1.214111	-0.731201
25802		-4.222310	-4.012919	10.872130	1.400128	-0.221908	0.854674	0.150391	1.202637	-0.745361
25803		-3.371506	-7.783233	15.454005	0.980074	0.416207	1.344800	0.172363	1.190674	-0.760010
25804		-0.307140	-23.749212	16.449966	-2.197058	0.763129	2.389628	0.213379	1.209717	-0.725342
25805		0.058531	-25.710980	8.529191	-1.736168	0.022822	2.444058	0.237061	1.217529	-0.712158
25806		-0.551429	-15.989669	10.274711	-0.313238	-0.384752	1.377989	0.249756	1.211426	-0.718018
25807		-5.777851	-16.197389	11.266686	-0.000489	-0.433071	0.873656	0.256836	1.213135	-0.719238
25808		-6.189223	-16.710688	10.752030	0.128419	-0.405073	0.177441	0.255615	1.211914	-0.729248
25809		-2.105380	-17.553898	10.568399	0.296821	-0.526279	-0.286462	0.251465	1.214844	-0.736328
25810		-0.765063	-18.137864	11.316451	0.248448	-0.546205	-0.530180	0.233398	1.204834	-0.739990
25811		-1.568106	-18.995875	11.493814	0.111231	-0.488219	-0.464944	0.226074	1.208008	-0.743652
25812		-2.075851	-19.124057	11.029084	0.033813	-0.404178	-0.237988	0.224854	1.207520	-0.744385
25813		-2.818283	-19.260533	9.868860	-0.061957	-0.386260	-0.143047	0.218262	1.206543	-0.745850
25814		-4.010126	-19.194028	8.329756	-0.036948	-0.528619	-0.333182	0.208740	1.203125	-0.740479
25815		-6.196662	-18.726784	7.111762	0.153361	-0.673196	-0.540670	0.193359	1.204102	-0.736572
25816		-6.618019	-16.894578	6.434018	0.486666	-0.767967	-0.610024	0.185303	1.194824	-0.746094
25817		-4.817111	-14.637879	6.191712	0.697852	-0.866480	-0.525058	0.179199	1.196045	-0.747803
25818		-2.753300	-13.159165	5.688339	0.756523	-0.963256	-0.394051	0.164307	1.197754	-0.753174
25819		-1.140250	-11.746398	4.811037	0.759181	-1.042869	-0.235348	0.163330	1.187012	-0.778076
25820		-0.333046	-10.365405	4.143082	0.771804	-1.131846	-0.077880	0.139160	1.189209	-0.768799
25821		-0.128625	-8.977095	3.741452	0.718892	-1.132135	0.050199	0.132568	1.175781	-0.784668
25822		0.321994	-7.709629	3.438691	0.581082	-1.068571	0.168654	0.128662	1.168701	-0.789795
25823		0.954082	-6.399270	2.685886	0.303866	-0.993218	0.259185	0.124023	1.168457	-0.793213
25824		1.471858	-5.253364	1.868750	-0.005117	-0.811290	0.322189	0.121338	1.168457	-0.786621
25825		1.501980	-3.714023	1.134343	-0.256886	-0.619941	0.321874	0.122314	1.166260	-0.790527
25826		1.322499	-2.107045	1.076772	-0.366578	-0.425624	0.307725	0.118164	1.161377	-0.777588
25827		1.276414	-0.485233	1.422022	-0.405781	-0.254289	0.347636	0.134277	1.170654	-0.766113
25828		1.460802	1.254623	1.761541	-0.489906	-0.059308	0.481738	0.130615	1.168457	-0.760986
25829		1.797898	2.997336	1.548392	-0.671837	0.081204	0.654636	0.137207	1.169922	-0.757080
25830		1.882674	4.328371	1.237459	-0.944740	0.197094	0.752423	0.145020	1.186279	-0.739258
25831		1.322573	5.309347	1.085926	-1.014562	0.156784	0.696232	0.160156	1.192383	-0.721680
25832		0.800990	5.533209	0.624928	-0.780066	0.082698	0.557056	0.161621	1.187988	-0.718262
25833		0.766696	5.041266	0.798475	-0.273458	0.034105	0.373944	0.175293	1.196533	-0.715088
25834		0.458464	3.814047	1.175085	0.168517	-0.073459	0.148121	0.178711	1.204102	-0.721436
25835		-0.265304	2.894066	1.045528	0.332998	-0.154690	-0.048561	0.171143	1.194336	-0.735352
25836		-0.788795	2.707119	0.336493	0.271382	0.009460	-0.100969	0.171143	1.189697	-0.733398
25837		-0.536232	2.228895	0.020849	0.482509	0.305104	-0.013540	0.165527	1.190918	-0.742676
25838		-0.029808	0.985697	0.766403	0.686797	0.516412	-0.020710	0.176270	1.179443	-0.758545
25839		1.105137	-1.257015	4.262775	0.813727	0.530827	-0.245890	0.171387	1.180664	-0.765869
25840		3.041687	-3.168156	9.575059	1.099895	0.089057	-0.413436	0.166260	1.168457	-0.788818
25841		3.709378	-6.657408	13.976471	1.037792	-0.621220	-0.507246	0.157715	1.167236	-0.798096
25842		-1.757808	-18.772878	18.544784	-1.317323	-1.053755	-1.061744	0.129639	1.172607	-0.793213
25843		-8.170940	-26.682505	9.558470	-2.699354	-0.697021	-1.444487	0.117676	1.206543	-0.754395
25844		-5.001921	-17.396180	8.924445	-0.995920	0.035450	-1.223784	0.103760	1.207520	-0.750244
25845		-0.621788	-18.867738	11.727667	-0.336767	0.263795	-1.084387	0.085693	1.218750	-0.745117
25846		5.990183	-20.884407	11.311579	0.048391	0.280984	-0.596335	0.087891	1.215332	-0.752197
25847		6.300902	-20.240729	11.246586	0.334604	0.392274	-0.127356	0.084717	1.208496	-0.757568
25848		2.447210	-20.180899	12.285138	0.387978	0.379387	-0.096330	0.084961	1.209473	-0.767090
25849		-0.468636	-20.592051	11.997478	0.532333	0.345820	-0.014912	0.087646	1.196045	-0.767090
25850		-0.868677	-18.902960	11.438509	0.613138	0.372224	0.074885	0.084961	1.191650	-0.776123
25851		0.195591	-18.176053	10.791052	0.546759	0.424907	0.120150	0.095215	1.199707	-0.780762
25852		0.819873	-17.901664	9.507393	0.490951	0.565300	0.194449	0.101807	1.187256	-0.790283
25853		0.421959	-16.922326	8.129152	0.520744	0.725406	0.230499	0.111816	1.183350	-0.776855
25854		-0.129194	-15.854117	7.383016	0.643762	0.862152	0.239179	0.119873	1.180176	-0.787109
25855		-0.522126	-14.369033	6.417145	0.780202	0.988213	0.214483	0.130615	1.165039	-0.787354
25856		-0.972323	-12.468962	5.514221	0.934484	1.100312	0.142954	0.145508	1.164551	-0.805176
25857		-1.196848	-10.677940	4.945503	1.000267	1.220153	0.026879	0.162842	1.150146	-0.807617
25858		-1.299017	-9.532492	4.069704	0.920660	1.230148	-0.065908	0.160400	1.137207	-0.806885
25859		-1.424666	-8.302871	3.602791	0.716922	1.114908	-0.156840	0.165771	1.133545	-0.815430
25860		-1.600976	-6.816424	3.106618	0.413394	0.945512	-0.181838	0.178467	1.139893	-0.810303
25861		-2.042991	-5.300235	2.155110	0.026178	0.769658	-0.119830	0.180908	1.140869	-0.822021
25862		-1.956391	-3.758207	1.555694	-0.513619	0.599281	-0.028030	0.182617	1.137695	-0.800537
25863		-1.579436	-1.978473	1.464969	-0.781258	0.422710	-0.015372	0.181885	1.144775	-0.790527
25864		-1.675531	-0.132240	1.193457	-0.978513	0.237935	-0.061929	0.180176	1.144775	-0.775635
25865		-1.271251	1.598392	1.038220	-1.289684	0.071318	-0.112870	0.185547	1.165771	-0.754395
25866		-1.344126	2.779722	0.878478	-1.563907	-0.175597	-0.256275	0.181885	1.177002	-0.742188
25867		-1.384685	3.540204	0.655937	-1.636913	-0.307889	-0.319158	0.174561	1.192139	-0.719238
25868		-1.286928	4.013315	0.366593	-1.502849	-0.407555	-0.355386	0.164063	1.198730	-0.700195
25869		-1.190035	4.336569	0.914647	-1.122950	-0.469829	-0.314789	0.161377	1.202148	-0.688965
25870		-0.703193	4.256840	1.710385	-0.533527	-0.414525	-0.217042	0.151855	1.209961	-0.684326
25871		0.089356	3.652236	2.200215	0.017324	-0.241887	-0.123903	0.153320	1.224609	-0.681885
25872		1.239452	3.198197	2.045997	0.253038	-0.140463	-0.049752	0.150635	1.209229	-0.684326
25873		2.122071	3.241548	1.419602	0.265912	-0.296713	-0.088923	0.144287	1.218506	-0.697998
25874		1.510114	3.174858	0.663745	0.247774	-0.650640	-0.228039	0.141602	1.202881	-0.709229
25875		0.500491	2.337903	0.781134	0.291137	-1.032508	-0.239578	0.132324	1.200928	-0.708740
25876		-0.583885	0.518424	1.450978	0.259757	-1.239943	-0.028570	0.116455	1.209229	-0.723145
25877		-2.235469	-2.380857	3.384593	0.361760	-1.113709	0.321857	0.117920	1.203125	-0.732178
25878		-4.436272	-5.572187	7.672115	0.995333	-0.559418	0.604841	0.122803	1.191895	-0.741211
25879		-5.262959	-7.457451	13.201073	1.167770	0.202129	0.879387	0.125244	1.179688	-0.760498
25880		-2.402267	-15.448473	16.340833	-0.728953	0.786349	1.665783	0.153320	1.188477	-0.753662
25881		2.457035	-24.079136	11.796844	-2.032939	0.547727	2.346548	0.191895	1.201904	-0.735596
25882		3.427669	-16.036410	9.053598	-0.813223	-0.109490	1.729168	0.201172	1.200928	-0.724609
25883		1.949146	-14.281158	10.938684	-0.349356	-0.384200	1.171311	0.216797	1.210205	-0.722168
25884		-3.083206	-16.594600	10.584164	-0.342626	-0.391241	0.620063	0.220947	1.200684	-0.724854
25885		-3.761953	-16.688031	9.935250	-0.036355	-0.461821	-0.063448	0.221924	1.201416	-0.718506
25886		-1.695844	-17.390703	10.765517	0.216125	-0.417084	-0.386680	0.213867	1.200439	-0.735596
25887		-0.297306	-17.762621	10.964217	0.209275	-0.317905	-0.456838	0.212646	1.202393	-0.730957
25888		-0.052224	-18.361767	10.594102	0.115818	-0.217541	-0.314896	0.194336	1.194092	-0.732910
25889		-1.253595	-18.573879	10.205586	0.009991	-0.156769	-0.206831	0.193359	1.202881	-0.740723
25890		-2.737240	-18.982181	9.108449	-0.076101	-0.178385	-0.237119	0.182373	1.198486	-0.737305
25891		-4.354766	-18.753513	8.099050	-0.010363	-0.315496	-0.453744	0.183350	1.198486	-0.734375
25892		-5.972755	-18.455978	6.931186	0.190643	-0.425495	-0.621616	0.160645	1.205322	-0.726318
25893		-6.076954	-17.257956	6.079559	0.488158	-0.543067	-0.686522	0.157959	1.199707	-0.742920
25894		-4.623952	-15.589178	5.693478	0.758307	-0.685650	-0.626903	0.141602	1.183350	-0.741211
25895		-2.934588	-13.853149	5.166380	0.930703	-0.830683	-0.497233	0.134033	1.182129	-0.757568
25896		-1.531619	-12.082584	4.620764	1.045326	-0.980629	-0.354653	0.125244	1.171143	-0.764160
25897		-1.129302	-10.563819	4.283649	1.097193	-1.134918	-0.240130	0.115234	1.170898	-0.778320
25898		-1.289935	-9.213797	3.666688	1.094114	-1.166053	-0.118580	0.098389	1.162598	-0.791016
25899		-1.284375	-7.710773	3.142213	0.907067	-1.075382	0.013348	0.097412	1.149658	-0.799561
25900		-0.665106	-6.088066	2.580976	0.428091	-0.907237	0.120082	0.085449	1.146240	-0.801758
25901		-0.001664	-4.302650	1.455597	-0.255896	-0.610146	0.229997	0.092773	1.149414	-0.795410
25902		0.952118	-2.771035	1.004721	-0.802260	-0.329110	0.321424	0.091309	1.152344	-0.781006
25903		1.845002	-1.224500	0.670591	-0.953513	-0.062044	0.358768	0.084717	1.171143	-0.770996
25904		2.356503	0.350557	1.318887	-0.953587	0.040860	0.450505	0.097168	1.164795	-0.757324
25905		2.782359	1.855022	1.729416	-0.838784	0.062475	0.630920	0.107666	1.174072	-0.750244
25906		2.570258	3.254387	2.338423	-0.694677	0.011997	0.817206	0.110352	1.175049	-0.741455
25907		1.208454	4.454914	2.218163	-0.566313	-0.097117	0.859236	0.132813	1.182861	-0.726318
25908		-0.623187	5.124148	1.690406	-0.463448	-0.185122	0.790237	0.139160	1.186035	-0.719238
25909		-1.334880	5.180393	1.650904	-0.254480	-0.206435	0.727278	0.147461	1.188477	-0.731689
25910		-1.285126	4.536754	1.546240	-0.052508	-0.128812	0.611975	0.154053	1.183838	-0.721680
25911		-1.041345	3.235057	1.001976	0.067205	-0.048123	0.431761	0.154541	1.192627	-0.734375
25912		-0.225697	1.606451	0.304808	0.089418	0.097136	0.267824	0.154785	1.192139	-0.731934
25913		1.080235	-0.076944	0.723136	0.223684	0.319042	0.039944	0.162109	1.185791	-0.730713
25914		2.246584	-1.694835	2.119131	0.437121	0.351567	-0.260933	0.162354	1.186035	-0.748047
25915		3.967888	-3.202748	6.213189	0.910603	0.037309	-0.479690	0.153320	1.175293	-0.760498
25916		4.438739	-4.024100	10.111763	1.382391	-0.787031	-0.588427	0.141602	1.164307	-0.785400
25917		1.492614	-5.800603	13.041553	1.115118	-1.332900	-0.792463	0.112305	1.151123	-0.797852
25918		-4.653375	-13.803971	14.799426	-1.309300	-1.275672	-0.935194	0.093506	1.160400	-0.786133
25919		-8.059018	-19.126195	8.127828	-2.327238	-0.589395	-0.862288	0.085205	1.184814	-0.766113
25920		-5.051530	-15.033636	8.420195	-1.238704	-0.031042	-0.539487	0.076172	1.201904	-0.742432
25921		-0.007528	-18.404129	10.296551	-0.734437	0.090461	-0.352870	0.065674	1.204590	-0.741211
25922		4.563208	-20.547847	9.541645	-0.258067	0.110370	-0.045079	0.071289	1.202148	-0.741455
25923		4.312307	-20.294057	10.224808	0.090290	0.225940	0.211940	0.070068	1.197510	-0.742188
25924		2.865860	-19.695576	10.958750	0.114904	0.329131	0.097477	0.074219	1.189453	-0.748535
25925		2.165280	-21.139170	10.026838	0.263434	0.491826	-0.015188	0.066650	1.198975	-0.747314
25926		2.738099	-20.125094	9.392908	0.426621	0.615110	-0.131486	0.083496	1.196289	-0.757568
25927		3.104675	-19.210679	8.514932	0.533271	0.729180	-0.174654	0.084717	1.187012	-0.754883
25928		2.063813	-17.646878	7.628250	0.650251	0.836715	-0.130970	0.092529	1.177979	-0.763184
25929		-0.089137	-16.162163	7.319821	0.782666	0.856830	-0.012644	0.098145	1.182617	-0.765625
25930		-2.114754	-15.051866	6.826436	0.933041	0.851503	0.161407	0.116455	1.164795	-0.785889
25931		-3.434916	-13.362439	6.261501	1.041338	0.887099	0.242261	0.119873	1.160400	-0.784424
25932		-3.759056	-11.557471	5.680179	1.092788	0.953741	0.209879	0.127197	1.157471	-0.795654
25933		-3.614902	-9.800188	5.422361	1.023700	0.939639	0.087482	0.136719	1.148193	-0.797607
25934		-3.295603	-8.361584	5.175053	0.878462	0.953068	-0.044198	0.147949	1.126221	-0.803955
25935		-2.672314	-7.115406	4.282692	0.637673	0.818194	-0.119170	0.142578	1.131348	-0.812500
25936		-1.980503	-5.929146	3.240771	0.264133	0.703939	-0.128759	0.145020	1.133545	-0.815918
25937		-1.195505	-4.873746	2.432431	-0.156898	0.602458	-0.089447	0.155029	1.132813	-0.805420
25938		-0.910346	-3.583264	2.127545	-0.449225	0.404981	-0.113381	0.159424	1.128418	-0.796631
25939		-0.702493	-1.939024	1.774213	-0.687937	0.223487	-0.098693	0.160156	1.143555	-0.782227
25940		-0.198369	-0.151432	1.547463	-1.002237	0.122158	-0.140715	0.161865	1.154785	-0.777100
25941		-0.500805	1.511453	1.368842	-1.368122	-0.000839	-0.201017	0.157227	1.156250	-0.756104
25942		-0.621748	3.042264	1.391808	-1.646642	-0.146841	-0.299030	0.151855	1.176025	-0.739502
25943		-0.817700	4.267559	1.141024	-1.683615	-0.199026	-0.279438	0.151367	1.185547	-0.711426
25944		-0.596498	4.799355	1.275265	-1.438744	-0.249312	-0.136023	0.144775	1.200195	-0.693115
25945		-0.401051	5.041213	1.964867	-0.919013	-0.228364	0.001913	0.146484	1.210938	-0.695557
25946		0.008609	4.654890	2.239197	-0.487375	-0.099013	0.124184	0.142822	1.203613	-0.690186
25947		0.971681	3.935173	2.048090	-0.275801	0.072943	0.246707	0.145508	1.209473	-0.686035
25948		1.899677	3.537322	1.437279	-0.197562	0.012767	0.343138	0.158203	1.216797	-0.688477
25949		2.084644	3.172084	1.671012	-0.000025	-0.268028	0.345208	0.150146	1.207520	-0.694580
25950		1.478950	2.218141	3.646198	0.545301	-0.594495	0.362961	0.152588	1.205322	-0.698486
25951		0.410778	0.521018	6.012967	1.107593	-0.665516	0.468078	0.154785	1.198975	-0.716797
25952		-0.019544	-1.805268	8.134775	1.354201	-0.339989	0.646787	0.154785	1.190430	-0.732666
25953		-0.292470	-5.791266	10.499549	1.169506	-0.096021	0.950343	0.175293	1.178467	-0.748779
25954		-0.933222	-14.666014	12.689801	-1.055210	0.276161	1.427675	0.191895	1.177734	-0.742676
25955		-1.868724	-24.682528	6.571915	-2.645520	-0.068926	1.871570	0.214844	1.195068	-0.704102
25956		-2.992203	-17.928204	6.619156	-1.169903	-0.498989	1.444305	0.223145	1.206299	-0.704834
25957		-5.989840	-16.887771	9.056830	-0.466046	-0.534070	1.019972	0.232666	1.211670	-0.699219
25958		-7.595788	-17.589128	9.536598	0.181632	-0.377618	0.483019	0.231201	1.199219	-0.706055
25959		-2.827670	-16.248778	10.195362	0.347453	-0.224944	0.122514	0.238281	1.197021	-0.707275
25960		0.932849	-17.799033	10.597635	0.418314	-0.229787	-0.072464	0.228027	1.192383	-0.722900
25961		2.430273	-18.431480	11.058374	0.518092	-0.318019	-0.190446	0.222900	1.196045	-0.725342
25962		0.713947	-19.298178	11.310785	0.339004	-0.260160	-0.091865	0.233398	1.184082	-0.721436
25963		-1.937961	-20.255237	10.482954	0.137042	-0.260615	-0.032110	0.220703	1.181885	-0.729980
25964		-4.684693	-20.358429	9.177693	0.042231	-0.350665	-0.064652	0.215576	1.186279	-0.731201
25965		-6.572072	-19.770335	7.462202	0.057976	-0.527565	-0.141205	0.207275	1.182617	-0.733398
25966		-7.682135	-18.531138	5.924311	0.275992	-0.731853	-0.210964	0.198975	1.179199	-0.731934
25967		-7.360929	-16.274886	5.203115	0.539142	-0.979981	-0.246983	0.200195	1.187500	-0.742432
25968		-5.853303	-14.238953	4.883578	0.763216	-1.157728	-0.223914	0.180420	1.171143	-0.752686
25969		-3.560336	-12.676677	4.712124	0.946199	-1.196441	-0.198542	0.176025	1.167236	-0.758789
25970		-1.162736	-11.501297	4.537595	1.099847	-1.157291	-0.189595	0.163574	1.155518	-0.777832
25971		0.415055	-10.200091	4.142235	1.182084	-1.043818	-0.204967	0.155029	1.151611	-0.788818
25972		1.834154	-8.881152	3.726124	1.124095	-0.868404	-0.182147	0.142334	1.145508	-0.795166
25973		2.694479	-7.174180	3.797835	0.922742	-0.754507	-0.164350	0.137695	1.139648	-0.814209
25974		2.755080	-5.629019	3.009917	0.613172	-0.715082	-0.139988	0.121582	1.129150	-0.814941
25975		2.393271	-4.214621	1.986116	0.229439	-0.564847	-0.000238	0.116455	1.122314	-0.810547
25976		1.764241	-2.937488	1.241341	-0.142891	-0.345337	0.177673	0.129150	1.133545	-0.812988
25977		1.296693	-1.618947	1.799830	-0.327241	-0.120361	0.312613	0.138672	1.132813	-0.802002
25978		0.912360	0.371223	2.594366	-0.420364	0.143425	0.428676	0.145752	1.133545	-0.796387
25979		0.817710	2.610719	2.705360	-0.575514	0.465347	0.619227	0.152344	1.141357	-0.789307
25980		1.541359	4.475875	2.197547	-0.894424	0.709022	0.739281	0.161865	1.147217	-0.773438
25981		1.564752	5.687926	2.018663	-1.132979	0.793521	0.606582	0.179688	1.153564	-0.765137
25982		1.856967	6.325905	1.916633	-0.983827	0.705672	0.424192	0.190918	1.157959	-0.750977
25983		1.713060	6.131933	1.372978	-0.657516	0.509568	0.191989	0.185547	1.170166	-0.741211
25984		1.042875	5.237726	0.654250	-0.260023	0.353909	0.019172	0.199219	1.172607	-0.740234
25985		0.186118	3.964907	0.183168	0.149812	0.355767	-0.057755	0.191406	1.168945	-0.740723
25986		-0.470533	2.925266	-0.088060	0.389962	0.467946	-0.075791	0.198486	1.159180	-0.759521
25987		-0.793898	1.683446	0.170816	0.466948	0.615835	-0.136897	0.200439	1.163330	-0.754639
25988		0.114644	-0.489348	1.592955	0.503490	0.767735	-0.283717	0.198486	1.167236	-0.761963
25989		1.968660	-3.025698	5.203627	0.611510	0.577984	-0.483553	0.205078	1.155273	-0.773926
25990		3.779648	-5.058592	10.000650	0.927655	-0.147001	-0.543820	0.188721	1.141602	-0.794678
25991		1.963329	-7.990998	13.709902	0.420061	-0.805195	-0.702227	0.171631	1.141113	-0.800781
25992		-5.450080	-18.531780	14.920506	-2.209671	-0.926979	-1.100345	0.157959	1.164795	-0.765869
25993		-7.911465	-17.593765	8.324075	-1.873611	-0.553131	-1.076046	0.137939	1.178467	-0.757324
25994		-4.672873	-11.991758	8.798338	-0.656156	-0.037165	-0.727482	0.128662	1.185791	-0.758545
25995		-1.575284	-15.471206	11.590932	-0.470554	-0.052799	-0.465015	0.121094	1.190918	-0.743408
25996		2.197675	-17.390892	11.252690	-0.477743	-0.123380	-0.102898	0.111816	1.194336	-0.738770
25997		3.152990	-18.318997	11.117180	-0.239693	0.002224	0.185898	0.119385	1.189697	-0.737549
25998		1.648479	-18.366163	11.573319	-0.065688	0.057757	0.216441	0.122314	1.200195	-0.737061
25999		-0.112729	-19.900281	11.509791	0.061056	0.084761	0.151968	0.127197	1.184570	-0.740479
26000		0.175442	-20.387345	11.136699	0.206903	0.152617	0.108247	0.130859	1.186279	-0.741699
26001		0.813251	-19.985116	10.182005	0.279442	0.201776	-0.026575	0.133301	1.184570	-0.740479
26002		1.096380	-19.620755	8.805696	0.361100	0.340909	-0.080197	0.127686	1.186523	-0.748047
26003		0.808205	-18.936769	7.802619	0.555112	0.519547	-0.102738	0.136475	1.173096	-0.742188
26004		0.374234	-17.653272	7.054941	0.828499	0.698183	-0.146551	0.135498	1.171143	-0.758301
26005		-0.012070	-16.027031	6.786142	1.118298	0.863922	-0.201617	0.142090	1.151123	-0.774902
26006		-0.500225	-13.879418	6.465906	1.286506	0.958631	-0.287674	0.146729	1.156250	-0.784424
26007		-1.227771	-12.014174	5.673141	1.318966	1.005633	-0.400402	0.155762	1.145508	-0.791504
26008		-1.722997	-10.585721	5.018512	1.225696	1.054407	-0.439500	0.160156	1.134521	-0.793457
26009		-1.845961	-9.181254	3.876677	1.081805	1.037569	-0.416543	0.151123	1.128418	-0.811768
26010		-1.933532	-7.936080	3.053222	0.877051	0.918591	-0.358461	0.162842	1.125488	-0.805176
26011		-1.964581	-6.826756	2.260282	0.597952	0.738829	-0.305477	0.162842	1.114746	-0.816162
26012		-1.694125	-5.619150	1.419807	0.226079	0.514723	-0.197188	0.163574	1.108398	-0.812988
26013		-1.273848	-4.084032	0.711110	-0.365651	0.365382	-0.115582	0.167480	1.110596	-0.809082
26014		-1.578026	-2.558165	0.177640	-0.925544	0.249650	-0.088936	0.171143	1.124268	-0.791992
26015		-1.439443	-0.841795	-0.195200	-1.359907	0.119318	-0.135462	0.169922	1.133057	-0.777344
26016		-1.204219	0.588027	0.023971	-1.618207	-0.035653	-0.258314	0.161377	1.150635	-0.756836
26017		-1.486035	1.712844	0.513908	-1.640359	-0.156246	-0.391489	0.164063	1.157959	-0.738281
26018		-1.188719	2.397553	0.987053	-1.377503	-0.305687	-0.465728	0.152588	1.172363	-0.721436
26019		-0.899454	3.231290	1.823138	-0.990570	-0.460026	-0.483903	0.139404	1.180176	-0.707275
26020		-0.399732	3.917727	1.988721	-0.631161	-0.497790	-0.389138	0.139893	1.190186	-0.704590
26021		0.304770	4.078277	1.692291	-0.301086	-0.411410	-0.229822	0.123047	1.185791	-0.696289
26022		0.992689	3.923742	1.080288	-0.131953	-0.330671	-0.106988	0.121338	1.196533	-0.696533
26023		1.082061	3.661193	0.571979	-0.069032	-0.393998	-0.088623	0.118652	1.189697	-0.703125
26024		0.573875	3.099634	0.570150	0.029317	-0.586902	-0.097573	0.113770	1.199707	-0.706055
26025		0.010120	2.170392	0.760276	0.165986	-0.809337	-0.017727	0.104736	1.189697	-0.713135
26026		-0.642073	0.362231	2.763681	0.352140	-0.939775	0.157790	0.109619	1.185547	-0.717041
26027		-1.541139	-1.634697	6.533203	0.815855	-0.689698	0.424971	0.102295	1.183594	-0.727295
26028		-2.047053	-3.814370	10.412523	1.379429	-0.051777	0.629222	0.104980	1.172119	-0.750488
26029		-0.881817	-5.496133	14.061607	1.254404	0.716591	0.816473	0.123779	1.165771	-0.772461
26030		2.981539	-12.757181	15.324197	-0.589018	1.108903	1.439351	0.144043	1.159668	-0.754150
26031		5.714021	-18.654735	8.804376	-1.780927	0.595509	1.897848	0.177979	1.172852	-0.736328
26032		2.653814	-14.353547	7.708898	-0.750874	-0.030349	1.390147	0.187012	1.172119	-0.733643
26033		-2.424660	-14.777921	10.194188	-0.735793	-0.292923	0.836386	0.200439	1.181885	-0.728760
26034		-7.691910	-18.169817	10.562404	-0.717663	-0.327574	0.302516	0.204346	1.192139	-0.722900
26035		-9.039226	-19.201150	10.357152	-0.214982	-0.229511	0.009563	0.195557	1.180908	-0.718506
26036		-4.123887	-18.671381	11.241476	0.346808	-0.159678	-0.156436	0.194824	1.187012	-0.731934
26037		0.097366	-17.966315	11.758157	0.645287	-0.168653	-0.242702	0.188477	1.175781	-0.727539
26038		1.941404	-17.171350	11.190030	0.622010	-0.145057	-0.070553	0.180664	1.174316	-0.739746
26039		0.445070	-17.186104	10.083405	0.446329	-0.148784	-0.106377	0.184326	1.161621	-0.761719
26040		-2.280380	-18.126574	9.063786	0.292027	-0.194661	-0.341190	0.177734	1.164795	-0.756104
26041		-4.502615	-17.797723	8.023631	0.284336	-0.251184	-0.653579	0.169434	1.159180	-0.755371
26042		-5.520769	-17.151779	6.993183	0.406099	-0.334876	-0.886094	0.159668	1.163086	-0.756836
26043		-5.444238	-15.673601	6.448086	0.590057	-0.462199	-0.925752	0.140381	1.157959	-0.765381
26044		-4.420649	-14.012978	5.697400	0.689491	-0.609084	-0.791385	0.129639	1.158203	-0.767090
26045		-3.272294	-12.616963	4.915783	0.689590	-0.776926	-0.603349	0.120361	1.145508	-0.770752
26046		-2.401539	-11.543432	4.348359	0.672348	-0.938737	-0.432218	0.103760	1.136475	-0.777100
26047		-1.742770	-10.107027	3.857463	0.695801	-0.997256	-0.295954	0.101074	1.138916	-0.785645
26048		-1.166697	-8.452580	3.069936	0.718433	-0.995353	-0.172335	0.081299	1.133057	-0.783691
26049		-0.461050	-6.996862	2.111649	0.553108	-0.962559	-0.063798	0.074951	1.129883	-0.793457
26050		0.179916	-6.327832	1.284542	0.239344	-0.897389	-0.000398	0.071777	1.124512	-0.796875
26051		0.843935	-5.617031	0.719382	-0.034181	-0.713049	0.102381	0.063721	1.128906	-0.796387
26052		0.917070	-4.586726	0.961508	-0.264203	-0.472471	0.217754	0.058105	1.138672	-0.802734
26053		0.874444	-3.019440	1.240650	-0.530821	-0.227319	0.298280	0.068359	1.135986	-0.780273
26054		0.954632	-0.873736	1.350586	-0.897822	0.036662	0.414577	0.073730	1.131836	-0.772461
26055		1.693238	1.424297	1.457622	-1.188894	0.345221	0.583806	0.077148	1.145508	-0.759521
26056		2.955207	3.098051	0.819622	-1.300853	0.655843	0.663234	0.094482	1.159912	-0.744385
26057		3.737846	4.251869	1.857461	-1.187511	0.804470	0.572055	0.105469	1.173340	-0.731689
26058		4.128669	5.350052	2.550203	-0.854942	0.621080	0.402100	0.114258	1.180908	-0.721436
26059		3.237269	5.783058	2.300445	-0.506576	0.360062	0.160795	0.123535	1.173828	-0.710205
26060		1.279114	5.446063	2.000539	-0.246167	0.136158	0.022997	0.124512	1.183838	-0.716797
26061		-0.122844	4.702967	1.215322	0.037020	0.237252	0.066738	0.117676	1.186035	-0.712402
26062		-0.512671	3.506949	0.366446	0.262082	0.524232	0.150344	0.133545	1.182373	-0.723633
26063		-0.384580	2.142259	0.162595	0.330674	0.818102	0.185307	0.138916	1.182861	-0.725342
26064		0.789066	0.017303	2.251924	0.475877	0.967090	0.097744	0.143555	1.177734	-0.731689
26065		2.953630	-2.258626	6.466826	0.982485	0.667130	-0.101196	0.146240	1.167236	-0.746826
26066		4.170514	-4.159869	11.765491	1.504448	-0.331489	-0.287061	0.140869	1.159424	-0.764648
26067		1.415263	-7.864944	14.843688	1.193554	-1.050369	-0.657511	0.120605	1.150635	-0.787598
26068		-7.643139	-24.696916	16.783842	-2.548195	-1.110353	-1.496133	0.096924	1.172607	-0.753662
26069		-6.926432	-18.753262	7.382456	-1.749859	-0.351068	-1.496966	0.070801	1.180908	-0.738525
26070		-3.452652	-13.662014	8.746630	-0.610105	0.250476	-1.338861	0.064697	1.192383	-0.738037
26071		2.247873	-17.242503	11.538655	-0.450738	0.366520	-0.860627	0.047363	1.187012	-0.730713
26072		6.675747	-20.159215	10.590319	-0.051826	0.286119	-0.301035	0.051025	1.194580	-0.732666
26073		3.257704	-19.192020	10.934366	0.248166	0.388536	0.155145	0.059570	1.187256	-0.743896
26074		-1.117291	-19.008321	11.473460	0.304640	0.380666	0.126662	0.055176	1.190918	-0.733154
26075		-2.641148	-20.006076	11.136398	0.458070	0.359332	0.024816	0.063721	1.184814	-0.745117
26076		-1.254587	-19.083940	10.514113	0.545120	0.398712	-0.082977	0.060303	1.178223	-0.759033
26077		0.450400	-18.581559	9.780010	0.446554	0.452756	-0.202040	0.053223	1.171875	-0.755859
26078		1.735839	-18.234283	8.390580	0.355849	0.600838	-0.194542	0.059326	1.162598	-0.757813
26079		1.942122	-17.044232	7.300546	0.387949	0.759517	-0.161381	0.072510	1.154541	-0.756104
26080		1.325978	-15.795943	6.539071	0.515274	0.914041	-0.129211	0.073730	1.169922	-0.767822
26081		0.555021	-14.420624	5.968215	0.710461	1.043422	-0.135455	0.086670	1.159180	-0.763184
26082		-0.171597	-12.621668	5.163422	0.852711	1.163987	-0.212713	0.081543	1.156250	-0.774414
26083		-0.701275	-11.081067	4.346785	0.888496	1.244133	-0.321334	0.097168	1.153320	-0.778076
26084		-1.006900	-9.947965	3.626054	0.827270	1.287193	-0.365001	0.109375	1.146484	-0.784668
26085		-1.158991	-8.581233	3.053949	0.729233	1.287993	-0.360716	0.108887	1.130615	-0.782227
26086		-1.361340	-7.072966	2.710373	0.567822	1.183553	-0.349197	0.115479	1.131592	-0.795898
26087		-0.909864	-5.771582	2.210958	0.395476	1.013282	-0.348589	0.119873	1.131836	-0.787842
26088		-0.780894	-4.374365	1.642218	0.054597	0.836640	-0.316199	0.121826	1.129883	-0.786621
26089		-0.975386	-2.853642	1.582162	-0.199492	0.627773	-0.356482	0.125488	1.134766	-0.785645
26090		-0.713172	-1.147736	1.346462	-0.321524	0.431828	-0.480026	0.121094	1.136963	-0.777588
26091		-0.438093	0.399568	1.394420	-0.592706	0.370012	-0.663000	0.124512	1.140869	-0.773682
26092		-0.313769	1.943478	1.302449	-1.046080	0.340503	-0.848981	0.103516	1.154053	-0.750000
26093		-0.634058	3.713744	1.592215	-1.431524	0.165312	-1.010665	0.099609	1.154785	-0.744385
26094		-0.883758	5.093009	1.469524	-1.542625	0.064314	-1.014286	0.085449	1.177490	-0.721436
26095		-0.640210	5.551388	0.913353	-1.368932	-0.043197	-0.763517	0.076416	1.180908	-0.703369
26096		-0.496178	5.528445	1.200770	-0.901323	-0.039157	-0.438676	0.061523	1.187500	-0.698486
26097		0.070223	5.089169	1.147570	-0.412189	0.099154	-0.138911	0.071289	1.194824	-0.697266
26098		0.781154	4.226858	1.317122	-0.068594	0.186705	0.040078	0.078125	1.192871	-0.693604
26099		1.161720	3.513310	1.177980	0.183037	-0.010887	0.074536	0.075684	1.195801	-0.698486
26100		0.813920	2.633343	1.033049	0.389764	-0.458212	0.062473	0.067871	1.192871	-0.710205
26101		-0.555783	1.109995	3.317514	0.683692	-0.766198	0.066880	0.056641	1.190430	-0.722412
26102		-1.949624	-0.952554	7.470361	1.272906	-0.683837	0.209112	0.051758	1.171387	-0.736328
26103		-2.778508	-2.676816	10.871415	1.684725	-0.060192	0.430954	0.061523	1.172119	-0.756348
26104		-1.667806	-5.392233	14.008679	1.237488	0.404365	0.780286	0.078613	1.157227	-0.770020
26105		0.115470	-15.998562	15.734330	-1.614829	0.751912	1.478026	0.108887	1.160889	-0.757813
26106		0.497238	-22.540133	6.978292	-2.271865	-0.012627	1.939931	0.118896	1.177734	-0.735840
26107		-1.909985	-16.876754	7.048888	-0.940089	-0.650641	1.458012	0.128418	1.181885	-0.732666
26108		-8.205861	-18.017135	8.674594	-0.535360	-0.890894	0.993161	0.140137	1.187012	-0.720459
26109		-9.752462	-17.027763	9.166860	0.081260	-0.775389	0.525871	0.135010	1.185303	-0.726563
26110		-4.476218	-16.662582	10.380500	0.353453	-0.706426	0.219496	0.134766	1.185303	-0.736816
26111		-0.509052	-17.361803	11.171294	0.335723	-0.705376	0.175916	0.125977	1.170410	-0.742676
26112		1.621768	-18.488125	11.261851	0.170963	-0.560778	0.430606	0.133301	1.176514	-0.738037
26113		1.859719	-19.711515	10.693902	0.133322	-0.543816	0.539247	0.135498	1.174072	-0.749512
26114		-0.188946	-20.035222	9.858087	0.149643	-0.507253	0.487026	0.136230	1.168701	-0.743164
26115		-2.671182	-19.589130	8.695374	0.195051	-0.577992	0.244676	0.136719	1.170166	-0.752686
26116		-4.870137	-18.859008	7.395648	0.341410	-0.649220	-0.006828	0.137451	1.157471	-0.740723
26117		-5.499377	-17.293699	6.207400	0.585671	-0.765045	-0.192145	0.123535	1.161865	-0.758301
26118		-4.609732	-15.136087	5.646740	0.817903	-0.899031	-0.269237	0.116699	1.152832	-0.762207
26119		-3.087597	-13.231885	5.302763	0.952162	-0.967839	-0.242603	0.106934	1.148926	-0.777100
26120		-1.616351	-11.737706	4.623767	1.020595	-1.041241	-0.191995	0.092773	1.141113	-0.783691
26121		-0.530024	-10.317248	4.191973	1.007888	-1.072885	-0.136059	0.083740	1.139893	-0.793457
26122		0.026831	-8.870569	3.919138	0.868188	-1.036327	-0.064079	0.074707	1.130127	-0.812256
26123		0.380866	-7.118593	3.622553	0.560451	-0.993304	0.023999	0.076172	1.127686	-0.823975
26124		1.025736	-5.576146	2.973889	0.104608	-0.926954	0.106607	0.066895	1.119141	-0.818115
26125		1.913423	-4.434366	1.726965	-0.390392	-0.700263	0.230589	0.065674	1.128174	-0.807129
26126		2.731242	-3.525418	1.171434	-0.652352	-0.474953	0.315775	0.063477	1.131104	-0.797119
26127		2.622970	-2.424902	1.383914	-0.664304	-0.304464	0.373434	0.064941	1.138672	-0.780518
26128		2.158835	-0.812854	1.774923	-0.699285	-0.087083	0.461553	0.066895	1.142578	-0.782227
26129		2.251079	0.861991	2.093202	-0.738032	0.259203	0.607652	0.078369	1.152344	-0.770020
26130		2.851857	2.331331	2.384812	-0.784542	0.597708	0.763637	0.089844	1.159424	-0.756592
26131		3.044611	3.525697	2.472913	-0.830652	0.724081	0.769628	0.117676	1.158203	-0.748291
26132		2.845126	4.599096	2.413082	-0.818660	0.688433	0.617346	0.119873	1.162598	-0.737793
26133		2.242604	5.108604	1.911602	-0.668867	0.626439	0.352762	0.125000	1.171143	-0.732666
