// General information: 
//  MT Manager version: 2021.0.0 
//  XDA version: 2021.0.0 build 5908 rev 109668 built on 2021-04-19
// Device information: 
//  DeviceId: 00B4406D
//  ProductCode: MTW2-3A7G6
//  Firmware Version: 4.4.0
//  Hardware Version: 1.1.0
// Device settings: 
//  Filter Profile: human(46.1)
//  Option Flags: Orientation Smoother Disabled, Position/Velocity Smoother Disabled, Continuous Zero Rotation Update Disabled, AHS Disabled, ICC Disabled
// Coordinate system: ENU
PacketCounter	SampleTimeFine	Acc_X	Acc_Y	Acc_Z	Gyr_X	Gyr_Y	Gyr_Z	Mag_X	Mag_Y	Mag_Z
24843		0.750828	3.410796	2.181813	-3.203212	-3.028781	1.661900	-1.596924	-0.073730	-0.417725
24844		5.549153	7.779337	2.520012	-4.443126	-2.493919	1.527005	-1.609619	-0.039795	-0.373535
24845		10.203453	11.129077	8.994244	-2.181589	-2.613149	0.505831	-1.627930	-0.035400	-0.320068
24846		19.449285	10.951742	14.689067	0.664447	-3.075369	-1.184332	-1.638916	-0.057861	-0.270264
24847		34.257446	6.236818	19.589770	2.804227	0.555174	-2.230854	-1.629883	-0.116455	-0.316162
24848		30.226567	-0.964019	23.573019	2.710735	5.226853	-2.132983	-1.598877	-0.152588	-0.405029
24849		14.355145	-3.847093	19.240735	0.860121	5.308384	-2.074432	-1.583740	-0.190918	-0.479248
24850		1.133532	-3.091139	14.750458	-1.605039	3.219959	-2.176920	-1.564453	-0.215576	-0.527832
24851		-8.794131	-2.565286	9.159792	-3.727216	0.788142	-2.283573	-1.568604	-0.224609	-0.540527
24852		-13.886913	-3.430924	-2.294714	-5.599822	-0.237041	-2.221406	-1.575195	-0.229248	-0.549072
24853		-16.298434	-8.715474	-30.589999	-3.443663	-0.257877	-1.453415	-1.579590	-0.231445	-0.546875
24854		-11.261627	-10.314250	-41.169937	2.984506	-0.238363	0.521524	-1.588623	-0.236084	-0.540527
24855		-5.805382	-16.266288	-38.903465	6.335347	-1.370052	2.480001	-1.618896	-0.218018	-0.468262
24856		-2.928439	-7.959158	9.589861	3.519328	-3.135406	2.777495	-1.639648	-0.213623	-0.449463
24857		46.345396	44.280814	81.903024	1.866545	3.701754	-5.091595	-1.634521	-0.301270	-0.438721
24858		63.783632	18.874279	-45.939576	0.703089	-9.150169	-1.214878	-1.668945	-0.310303	-0.288330
24859		38.386885	7.491232	-27.361245	4.948397	-0.868565	1.828845	-1.671875	-0.285645	-0.321289
24860		17.651735	0.133105	-15.102050	1.087373	6.335514	1.549655	-1.640137	-0.267578	-0.424561
24861		-4.036780	-0.494175	12.283326	-3.545389	4.118626	0.493020	-1.633789	-0.247314	-0.457031
24862		-14.414902	-5.196159	1.854521	-6.934240	-3.428785	-1.339128	-1.649902	-0.249512	-0.388428
24863		-1.194478	-3.055369	-19.045859	-0.876589	-5.017537	-0.727585	-1.663818	-0.256104	-0.304688
24864		7.610674	3.146868	-18.305224	4.330179	-4.206282	1.311170	-1.685059	-0.240234	-0.206543
24865		12.646784	6.642039	-8.190891	4.422017	-4.566854	0.616262	-1.690186	-0.244629	-0.107422
24866		28.179851	7.853846	0.354108	0.995108	-6.029188	-0.822836	-1.685303	-0.269287	0.009277
24867		50.432845	12.407709	-5.714768	-0.477877	-6.213758	-1.450736	-1.671875	-0.284912	0.102539
24868		35.511785	13.787878	-2.297158	0.389280	-2.927461	0.188088	-1.660889	-0.280273	0.143311
24869		15.138866	14.148313	2.308078	-0.495930	-1.890352	0.468690	-1.654541	-0.275635	0.179932
24870		12.413072	10.518299	2.785849	-2.765669	-3.523731	0.202526	-1.636230	-0.284668	0.236328
24871		17.127921	3.728525	4.115462	-4.026070	-3.916717	0.165678	-1.616211	-0.289063	0.284180
24872		20.094700	-4.670393	8.300367	-3.020772	-3.264460	-0.226387	-1.602051	-0.311279	0.327881
24873		18.764119	-10.370328	13.916733	-1.513059	-3.454364	-0.537383	-1.576904	-0.324707	0.377930
24874		16.532264	-12.236494	15.507998	0.574623	-4.303649	-0.840869	-1.556641	-0.333496	0.443115
24875		13.970361	-12.713985	10.278289	2.462968	-3.787695	-0.882718	-1.532227	-0.328857	0.503662
24876		10.791710	-10.324784	1.899813	3.975021	-2.439246	-0.485477	-1.512695	-0.312988	0.540039
24877		6.949233	-5.173837	-1.427014	5.169446	-1.393330	0.032912	-1.504883	-0.279297	0.569580
24878		3.998664	-0.868846	6.924239	4.958582	-0.760553	0.328865	-1.501465	-0.247559	0.590332
24879		2.273149	1.078069	13.886465	3.766000	-0.162217	0.601542	-1.500244	-0.220459	0.587402
24880		1.019162	3.836128	12.105990	3.171988	0.578999	1.202757	-1.506104	-0.175537	0.584229
24881		-0.006316	6.553082	10.789863	2.958980	0.815365	1.252243	-1.518311	-0.144043	0.568115
24882		0.505304	7.528451	8.388736	2.569811	1.112250	0.802554	-1.523682	-0.121582	0.552490
24883		0.896297	7.931207	4.603325	2.200902	1.735558	0.391120	-1.537842	-0.096924	0.528076
24884		0.882782	8.486935	1.859571	1.837668	1.964098	-0.031671	-1.549072	-0.096924	0.500000
24885		1.590324	8.562712	1.150651	1.152152	1.922376	-0.355308	-1.564697	-0.096924	0.471680
24886		2.988560	7.276294	2.353508	-0.034010	1.992773	-0.485640	-1.582275	-0.106201	0.435059
24887		4.251508	3.095030	4.004113	-1.799129	2.326903	-0.585654	-1.594971	-0.124268	0.398682
24888		4.893927	-3.239980	3.419593	-3.509105	2.722956	-0.703988	-1.612061	-0.149170	0.351807
24889		5.179444	-8.364681	1.350000	-4.192152	2.841133	-0.591561	-1.624512	-0.174072	0.304932
24890		5.386497	-10.834851	0.658119	-3.797179	2.917703	-0.325714	-1.644287	-0.183105	0.248779
24891		6.044266	-10.848137	1.360980	-2.907030	3.038266	-0.041056	-1.655029	-0.190186	0.197266
24892		7.812816	-8.298721	1.655946	-1.703006	3.094054	0.259692	-1.670898	-0.185791	0.151611
24893		11.470500	-3.785980	1.192114	-0.316530	3.057787	0.480388	-1.680176	-0.169922	0.101807
24894		17.222637	1.082550	0.093605	0.721485	2.944470	0.337665	-1.697998	-0.165527	0.062500
24895		27.966688	6.633105	-1.040311	1.090272	2.720482	-0.311198	-1.702148	-0.172363	0.017578
24896		36.769976	10.573401	-1.549618	0.807720	3.037552	-1.307080	-1.705566	-0.195068	-0.044434
24897		29.691534	11.611199	1.108491	-0.460868	4.161316	-0.667951	-1.707275	-0.199707	-0.119629
24898		22.853930	12.671627	1.683195	-2.598919	4.126079	0.209100	-1.700684	-0.181885	-0.197266
24899		21.869325	10.071193	-0.110971	-3.937168	4.021902	-0.042511	-1.693359	-0.184082	-0.281006
24900		24.043510	5.303270	0.171542	-3.985078	4.266903	-0.436557	-1.677246	-0.177490	-0.366943
24901		25.815351	2.179318	0.783084	-4.017288	4.546689	-0.299656	-1.663574	-0.166260	-0.455322
24902		25.538891	0.933172	0.497184	-3.307520	4.635474	0.017011	-1.627930	-0.141602	-0.545654
24903		23.350556	0.803916	0.829633	-2.161793	4.516444	0.341591	-1.600830	-0.127930	-0.618652
24904		20.005737	0.488304	2.178798	-1.255775	4.076779	0.681253	-1.569336	-0.107666	-0.691650
24905		17.010386	-0.080078	3.384766	-0.942730	3.394127	0.881966	-1.531494	-0.085205	-0.745361
24906		14.364097	-0.636727	2.942214	-1.105095	2.806115	0.995104	-1.509277	-0.062744	-0.797363
24907		11.423046	-1.514963	0.933584	-1.309902	2.264392	1.134675	-1.478271	-0.037842	-0.827393
24908		9.167095	-2.009526	-1.316708	-1.390276	1.643302	1.095266	-1.458984	-0.006348	-0.851563
24909		7.160580	-2.359232	-3.090567	-1.091547	0.948411	0.948371	-1.443848	0.016357	-0.862793
24910		5.733397	-2.313133	-4.010863	-0.468889	0.355715	0.822365	-1.430664	0.029785	-0.871338
24911		4.442410	-2.185491	-4.534845	0.338760	-0.020638	0.652925	-1.419189	0.027588	-0.869141
24912		2.586276	-1.719690	-4.998046	1.259212	-0.226381	0.388290	-1.414307	0.011719	-0.870605
24913		0.382455	-1.176164	-5.218483	2.170706	-0.424226	0.081052	-1.411377	-0.003906	-0.863770
24914		-1.305196	-0.819077	-5.106958	2.820226	-0.684811	-0.211240	-1.410400	-0.035400	-0.845947
24915		-3.190742	-0.636409	-4.777282	3.354521	-1.009790	-0.334509	-1.418457	-0.066895	-0.834473
24916		-5.119559	-0.398993	-5.484740	3.738834	-1.329805	-0.413200	-1.417236	-0.109863	-0.805420
24917		-7.485647	-0.097067	-7.780695	4.363757	-1.676034	-0.518010	-1.434326	-0.147949	-0.783203
24918		-10.408042	1.934821	-8.350301	4.646089	-2.213482	-0.640899	-1.448975	-0.193115	-0.732910
24919		-12.481283	9.837311	-5.335522	1.570629	-3.032086	-0.073800	-1.476563	-0.186279	-0.681885
24920		-9.939273	16.192023	-5.075742	-2.428736	-3.515247	0.686589	-1.509521	-0.154785	-0.627197
24921		-2.367107	14.476648	-4.255649	-4.264789	-4.315584	0.160366	-1.542480	-0.127686	-0.553223
24922		5.907833	8.250996	-2.023229	-4.009390	-5.296417	-0.682140	-1.579102	-0.127686	-0.465576
24923		13.892498	2.853519	5.845379	-1.769316	-4.719531	-1.086178	-1.594727	-0.138916	-0.401123
24924		21.231950	0.142470	20.017790	0.984502	-1.054707	-1.003636	-1.596436	-0.159180	-0.406982
24925		24.018233	1.790314	34.664584	1.394205	2.966197	-0.605589	-1.582031	-0.175049	-0.460205
24926		23.963125	1.695413	36.043521	-0.050287	4.598117	-0.269632	-1.565918	-0.170654	-0.537354
24927		12.474869	0.159774	22.171796	-3.194352	3.723005	0.174736	-1.557617	-0.143555	-0.587402
24928		0.829386	-4.810480	-4.588433	-4.804478	0.240102	0.225992	-1.560547	-0.123291	-0.585938
24929		-4.250404	-15.017332	-30.797323	-0.935680	-1.088367	-0.477087	-1.569336	-0.127930	-0.566406
24930		-2.252386	-20.467950	-37.528653	3.502726	-1.364362	0.407223	-1.589844	-0.130127	-0.525879
24931		3.398157	-13.237252	-18.130763	3.570887	-2.135870	1.898002	-1.606201	-0.121094	-0.496338
24932		15.881258	-7.023390	29.627370	0.765604	2.161479	-0.063427	-1.589844	-0.125732	-0.558350
24933		17.072929	1.805107	16.394024	-8.840051	0.823816	-2.951715	-1.605957	-0.125732	-0.521973
24934		17.146005	7.945174	-32.288755	3.615528	-5.749307	-0.698840	-1.636963	-0.159424	-0.424805
24935		21.431988	13.769593	-34.779117	11.773792	-3.381303	1.243536	-1.645508	-0.181885	-0.357666
24936		14.336406	13.519902	-16.582295	10.594779	-0.258454	1.332356	-1.647461	-0.193115	-0.348877
24937		5.800778	6.673536	7.146820	0.574187	-0.167828	-0.382407	-1.643066	-0.199707	-0.316406
24938		10.595710	3.754866	5.926558	-3.327299	-4.232035	-0.524957	-1.659668	-0.190674	-0.230957
24939		25.028233	8.885806	-6.311011	-0.662442	-4.925682	1.758262	-1.677002	-0.154541	-0.143799
24940		32.675820	13.691018	-7.567061	0.985744	-4.405505	0.971637	-1.670654	-0.152100	-0.066406
24941		28.446407	14.539536	-4.008931	-0.579431	-3.208364	-0.057699	-1.673584	-0.145508	-0.021484
24942		16.956514	10.876024	-2.107733	-2.141175	-3.022700	0.677852	-1.667236	-0.140869	0.045166
24943		12.938004	8.101056	-2.053651	-2.478214	-4.436503	0.647904	-1.649902	-0.127197	0.114014
24944		14.841849	4.854688	-3.186923	-2.009306	-5.302863	0.410745	-1.643555	-0.133789	0.213135
24945		19.878219	2.850829	-1.669757	-1.173928	-4.976866	0.341788	-1.619141	-0.128906	0.288818
24946		25.652311	2.777191	1.194359	-1.486004	-3.778561	0.069017	-1.600830	-0.140137	0.330078
24947		25.725447	0.555051	5.530428	-2.316130	-2.273522	-0.546818	-1.586670	-0.164795	0.358887
24948		19.012655	-5.116616	8.247112	-2.414138	-2.069191	-0.796199	-1.565674	-0.189453	0.392090
24949		13.435570	-8.341787	10.639370	-1.696173	-3.604648	-0.918083	-1.544922	-0.211914	0.451172
24950		11.426430	-11.277972	11.642011	-0.336172	-4.287609	-1.180732	-1.517578	-0.229736	0.514404
24951		8.593709	-12.881463	10.458819	2.176530	-4.117053	-1.285867	-1.488525	-0.231934	0.572998
24952		6.231687	-12.811178	6.126259	4.636612	-3.701478	-0.920398	-1.466797	-0.213623	0.633057
24953		5.872946	-9.794850	0.740639	5.568623	-2.070030	-0.108340	-1.447754	-0.175293	0.649658
24954		3.883111	-5.558919	5.536570	5.318764	-0.107817	0.680099	-1.456055	-0.130127	0.654785
24955		1.590679	-1.172679	12.967958	4.335161	0.123383	0.998683	-1.450684	-0.087402	0.660400
24956		1.945937	2.912617	13.563269	2.818641	0.185807	1.070439	-1.456055	-0.058105	0.653076
24957		1.664815	9.276414	9.964611	2.407811	0.425763	0.951720	-1.454834	-0.024414	0.643799
24958		3.010918	14.155606	6.767366	3.137245	0.769085	0.368103	-1.464600	-0.001953	0.632324
24959		4.490063	13.437733	7.475654	2.758158	1.562574	-0.299987	-1.480713	0.009277	0.608154
24960		2.186690	10.534769	6.221436	1.408118	2.131377	-0.771966	-1.498535	0.007080	0.566895
24961		0.222658	7.435944	4.391054	0.319632	2.058946	-0.923523	-1.509277	-0.006592	0.545654
24962		0.098160	3.566349	4.978859	-0.718674	2.265750	-0.708595	-1.531006	-0.024658	0.511230
24963		0.558540	-1.029935	4.664856	-1.634681	2.668343	-0.453982	-1.552979	-0.036133	0.470459
24964		1.564881	-4.784679	2.214184	-2.142482	2.694602	-0.300690	-1.570557	-0.049805	0.433838
24965		3.316308	-6.128397	1.279866	-2.037885	2.816437	-0.274150	-1.592529	-0.058838	0.388672
24966		4.681835	-5.389212	2.812398	-1.806857	3.127796	-0.381045	-1.605469	-0.070313	0.343506
24967		6.276173	-3.498463	3.475295	-1.614415	3.394169	-0.403828	-1.627686	-0.077148	0.289551
24968		9.792851	-0.291800	0.791021	-0.869700	3.464131	-0.317375	-1.652344	-0.077393	0.239746
24969		16.249429	2.896841	-2.560244	0.102050	3.209481	-0.575167	-1.660645	-0.093262	0.197021
24970		32.883651	7.446562	-4.966505	0.458862	2.577242	-1.766866	-1.670654	-0.124756	0.152344
24971		44.656799	10.382455	-5.376313	-0.180818	3.227449	-2.743336	-1.684814	-0.163330	0.084229
24972		26.603818	9.077307	1.252102	-2.134167	5.005723	-1.424122	-1.681152	-0.190430	-0.007568
24973		19.778705	9.026729	1.666206	-4.851146	3.748244	-0.206112	-1.687744	-0.181641	-0.070313
24974		23.229399	5.250771	-2.290943	-5.181261	3.240675	0.079077	-1.687500	-0.183838	-0.141113
24975		25.710457	0.955036	-1.934440	-3.860306	4.138694	-0.608387	-1.682129	-0.188477	-0.229248
24976		27.212694	-0.768529	0.338157	-3.126147	4.586395	-0.841618	-1.665771	-0.195313	-0.319092
24977		29.056016	-1.808494	0.883027	-2.821189	4.539990	-0.429409	-1.645020	-0.190918	-0.398438
24978		28.477239	-0.153564	0.345561	-2.304658	4.528040	0.137700	-1.620361	-0.172852	-0.484375
24979		24.005653	3.073569	-0.444275	-1.434578	4.374305	0.487156	-1.604736	-0.157227	-0.562012
24980		19.189344	5.217632	-0.394139	-0.556749	3.771520	0.610882	-1.570801	-0.145996	-0.624268
24981		16.128798	4.945389	0.428053	-0.200800	2.939832	0.686255	-1.539307	-0.134766	-0.671387
24982		13.894534	3.499817	0.260541	-0.637512	2.374188	0.868123	-1.521729	-0.112305	-0.716797
24983		12.110328	1.648233	-1.514545	-1.377032	1.993997	0.854614	-1.503906	-0.094238	-0.749023
24984		9.647427	-0.250762	-3.597958	-1.926558	1.568852	0.808510	-1.479980	-0.067139	-0.770996
24985		6.818548	-2.309218	-5.085028	-2.086522	1.048007	0.669939	-1.460205	-0.044434	-0.788330
24986		4.307472	-3.971408	-5.728598	-1.917862	0.420687	0.427268	-1.449707	-0.021973	-0.799561
24987		1.584191	-4.851140	-5.621715	-1.315915	-0.277685	0.305029	-1.447754	-0.008545	-0.789063
24988		-0.710750	-4.457536	-5.584330	-0.429812	-0.792509	0.238737	-1.438721	-0.010742	-0.784424
24989		-3.119690	-3.794286	-6.007872	0.775968	-1.061140	0.057290	-1.445313	-0.019775	-0.767090
24990		-6.301432	-3.508565	-6.254338	2.347812	-1.305353	-0.059211	-1.447021	-0.039795	-0.740967
24991		-9.507399	-4.118443	-7.257497	4.170279	-1.821288	-0.282247	-1.468262	-0.084961	-0.709961
24992		-11.467782	-4.586780	-8.796081	6.033620	-2.599501	-0.477911	-1.485352	-0.127686	-0.659912
24993		-10.844660	0.753884	-6.088903	5.661475	-3.502514	-0.175398	-1.507080	-0.161621	-0.594727
24994		-8.235167	9.441395	-4.268976	2.505406	-4.019552	0.806064	-1.532715	-0.150146	-0.528809
24995		-5.135035	15.156037	-3.728414	-1.016998	-3.662726	1.893643	-1.557129	-0.105225	-0.474365
24996		0.808059	14.833200	-2.233425	-1.981962	-3.840060	0.779231	-1.577881	-0.100586	-0.403809
24997		9.612106	11.247001	2.961436	-1.045409	-3.846536	-0.807643	-1.595947	-0.109619	-0.347900
24998		19.884054	7.121492	11.865055	0.109678	-1.879188	-1.744139	-1.594971	-0.145508	-0.334229
24999		29.893495	5.757274	24.958167	0.903801	2.018423	-1.724920	-1.582520	-0.170410	-0.374268
25000		29.462844	5.622392	31.973097	-0.610201	4.448646	-0.904005	-1.572754	-0.181885	-0.455566
25001		20.983387	1.913733	22.739020	-2.148866	4.093988	-0.834375	-1.554443	-0.179688	-0.515625
25002		9.542595	2.016544	15.046884	-3.598005	2.960159	-0.726936	-1.541016	-0.168213	-0.558594
25003		-3.946952	5.759320	6.823425	-4.791280	0.356012	-0.136552	-1.541748	-0.145752	-0.567871
25004		-17.140992	8.433694	-3.337933	-5.206644	-1.965390	-0.484255	-1.562744	-0.127930	-0.536377
25005		-20.489109	3.658883	-36.735613	-1.836510	-1.575004	-1.664273	-1.573242	-0.154785	-0.520752
25006		-14.598753	-8.175404	-64.902289	6.326337	-0.487237	-0.595279	-1.592285	-0.204346	-0.472656
25007		-4.043620	-13.850867	-28.398732	10.199053	-2.875475	1.673074	-1.619873	-0.197754	-0.412842
25008		23.631535	-21.721519	78.000061	-9.349354	2.061300	0.856231	-1.590332	-0.116699	-0.547852
25009		31.135910	-24.053190	26.282078	-26.006656	3.843464	-5.132460	-1.608154	-0.127930	-0.504639
25010		35.341111	-5.337726	-53.437525	9.476093	-9.010933	-2.017994	-1.643311	-0.186279	-0.353271
25011		33.306233	13.597319	-41.292530	19.063726	-3.258795	2.268632	-1.652100	-0.204346	-0.297119
25012		22.393757	18.589668	-15.564630	14.644701	2.366947	2.588832	-1.649658	-0.202148	-0.322998
25013		8.623120	19.367304	18.213470	1.097669	1.850884	1.166290	-1.645996	-0.177246	-0.317139
25014		-3.682336	9.274613	5.076895	-5.324857	-3.246925	-0.302553	-1.653076	-0.181641	-0.252441
25015		5.609260	8.865598	-14.665026	0.389065	-4.151096	0.216253	-1.660645	-0.168213	-0.177734
25016		11.996055	12.771855	-12.582169	2.136150	-4.667105	1.108300	-1.668213	-0.158936	-0.079102
25017		23.040339	16.539086	-6.260227	0.672462	-5.241330	-1.173275	-1.667725	-0.190430	0.014160
25018		33.577779	16.604092	-2.176552	-1.911159	-4.513153	-1.736510	-1.655762	-0.217285	0.079590
25019		31.628938	10.270922	-0.870262	-2.920284	-4.007761	0.141083	-1.651855	-0.210449	0.144043
25020		24.531256	5.707841	-2.961702	-2.624527	-3.980764	0.796387	-1.632080	-0.205811	0.200195
25021		21.869569	1.479523	-1.941043	-2.147438	-3.565787	0.358310	-1.614014	-0.212402	0.256348
25022		21.223356	-2.232496	1.485423	-2.791305	-2.916478	-0.127401	-1.602295	-0.225830	0.289307
25023		19.133269	-6.725666	4.988031	-3.639500	-2.335542	-0.459007	-1.588135	-0.248291	0.313721
25024		16.472022	-10.842969	7.846200	-3.217761	-3.063362	-0.282551	-1.570068	-0.257080	0.361328
25025		14.363555	-11.608515	10.875848	-1.408569	-3.806860	-0.364633	-1.536133	-0.270508	0.411865
25026		11.208420	-10.850247	13.038995	1.349675	-3.892646	-0.838755	-1.515869	-0.272705	0.476563
25027		7.851978	-10.321139	9.729897	4.487743	-4.083644	-0.871713	-1.487549	-0.256592	0.545654
25028		6.781422	-9.228603	1.221479	6.810226	-3.580893	-0.402069	-1.470947	-0.222656	0.609619
25029		6.817445	-3.829859	-4.976430	7.464869	-2.172112	0.336587	-1.459229	-0.168457	0.636475
25030		5.176300	2.623685	0.780212	6.442611	-1.082569	1.010095	-1.454590	-0.107666	0.654297
25031		3.595631	7.673000	14.242270	4.290482	-0.847274	0.818552	-1.439453	-0.084961	0.666992
25032		3.015838	10.291823	18.041614	1.535829	-0.370758	0.380661	-1.442383	-0.064697	0.670654
25033		2.779097	12.008683	13.959444	0.308404	0.121652	0.166922	-1.449219	-0.064941	0.666260
25034		4.438308	9.667166	11.339777	0.435933	1.244372	-0.335886	-1.458008	-0.067139	0.638184
25035		3.361658	6.539596	9.259631	0.515505	2.279321	-0.588811	-1.473633	-0.071777	0.605957
25036		1.399193	5.112693	6.476835	0.545407	2.598368	-0.652055	-1.500000	-0.083252	0.569092
25037		0.480049	3.287827	5.045080	0.301599	2.668729	-0.504221	-1.510986	-0.087646	0.526123
25038		0.365697	-0.201820	4.550710	-0.622365	2.919678	-0.150409	-1.535400	-0.092285	0.482666
25039		1.194356	-4.400667	3.230811	-1.549977	3.136691	0.116244	-1.557861	-0.092529	0.435059
25040		3.305251	-7.430470	1.901062	-1.818666	3.328499	0.155428	-1.572998	-0.101563	0.381348
25041		5.445243	-8.189649	1.339688	-1.674496	3.643337	0.089379	-1.597656	-0.101807	0.322754
25042		7.109830	-7.255123	1.951732	-1.631048	3.790683	-0.004357	-1.613281	-0.099609	0.268799
25043		8.738464	-5.373184	2.473063	-1.705343	3.840066	-0.027654	-1.633057	-0.106689	0.208496
25044		10.920348	-2.183833	1.240598	-1.179048	3.870869	0.045270	-1.650879	-0.104492	0.143555
25045		14.595559	1.849010	-0.775130	-0.151996	3.751335	0.020898	-1.659668	-0.100098	0.087402
25046		21.766429	5.689001	-1.786206	0.574978	3.345994	-0.334010	-1.661621	-0.104736	0.042236
25047		34.111385	10.186542	-2.475249	0.457354	3.024113	-1.100802	-1.674072	-0.127441	-0.006836
25048		36.405155	12.221877	-1.689005	-0.462252	3.872206	-1.339063	-1.673096	-0.145508	-0.085938
25049		29.245322	12.056720	-0.325248	-2.314514	4.581849	-0.442654	-1.672607	-0.147949	-0.169678
25050		26.494502	9.495139	-1.654508	-3.369986	4.331463	0.009967	-1.663574	-0.136719	-0.255859
25051		26.737183	5.058088	-1.459220	-3.299728	4.860734	-0.132213	-1.647461	-0.127686	-0.348389
25052		26.422255	1.943425	0.155536	-3.243234	5.409725	-0.327977	-1.631348	-0.123291	-0.445068
25053		25.985911	0.803938	-0.386562	-3.133849	5.370230	-0.244922	-1.606201	-0.112061	-0.537354
25054		24.676569	1.147641	-0.668174	-2.335969	5.029392	0.052984	-1.563232	-0.098633	-0.620850
25055		21.928711	2.521806	0.438146	-1.389656	4.537874	0.214488	-1.522461	-0.091797	-0.689209
25056		18.310125	3.940972	2.689177	-0.894169	3.860537	0.263419	-1.490967	-0.078369	-0.762207
25057		14.920439	4.127537	3.559648	-1.153810	3.040410	0.402073	-1.459473	-0.064697	-0.800781
25058		11.584585	2.496910	2.212238	-1.789841	2.287256	0.592407	-1.432861	-0.044434	-0.841797
25059		9.132719	0.675583	-0.482058	-2.575592	1.490213	0.624796	-1.413574	-0.008545	-0.859375
25060		6.905089	-1.009360	-3.169318	-2.989154	0.735959	0.621832	-1.398682	0.018555	-0.868408
25061		4.837763	-2.855168	-4.875435	-2.570525	-0.038830	0.472753	-1.397461	0.047852	-0.862793
25062		2.644812	-4.168574	-5.771570	-1.462112	-0.722143	0.229964	-1.393066	0.052490	-0.847656
25063		0.277670	-4.612657	-5.949527	0.076772	-1.196796	-0.045701	-1.395264	0.050293	-0.830566
25064		-1.913642	-3.829461	-6.213874	1.417499	-1.327693	-0.253278	-1.401367	0.025391	-0.817139
25065		-3.845977	-3.320648	-6.245329	2.559386	-1.420910	-0.469930	-1.407227	-0.003906	-0.794922
25066		-5.279013	-3.341783	-6.337880	3.588698	-1.663684	-0.654441	-1.415039	-0.046631	-0.770508
25067		-6.392142	-3.680515	-7.379958	4.627103	-1.949964	-0.639387	-1.429443	-0.093994	-0.735107
25068		-7.490806	-4.766691	-9.069364	5.680375	-2.217547	-0.517268	-1.443848	-0.143555	-0.695313
25069		-8.142611	-2.877585	-7.465195	5.572703	-2.642208	-0.182245	-1.465820	-0.170410	-0.639160
25070		-7.255993	3.699286	-3.961759	2.926205	-3.006173	0.509558	-1.481934	-0.175049	-0.594238
25071		-4.173590	9.362464	-2.086920	0.090426	-2.950605	1.314089	-1.505615	-0.145752	-0.543701
25072		-0.107936	10.855035	-1.156638	-1.810602	-3.146814	1.217567	-1.529541	-0.118652	-0.492920
25073		5.197250	8.924279	0.555841	-2.188595	-3.600705	0.240365	-1.552734	-0.107422	-0.424805
25074		10.961754	6.312538	5.424238	-1.116121	-3.409753	-0.680022	-1.570557	-0.123047	-0.379639
25075		17.756298	5.024963	16.179078	1.259966	-1.479695	-1.471916	-1.569580	-0.156738	-0.361572
25076		24.481158	6.614867	30.465508	1.667334	2.208085	-1.533468	-1.554932	-0.179443	-0.416748
25077		21.667524	6.613843	34.017875	-0.939916	4.327991	-1.159285	-1.536133	-0.190674	-0.484863
25078		11.878373	3.948208	26.563238	-2.187904	3.354130	-1.145402	-1.528809	-0.197510	-0.527588
25079		0.572499	5.999421	11.382908	-1.562053	0.408108	-0.682755	-1.526611	-0.197510	-0.521240
25080		-9.186139	7.555700	-8.046703	-1.149425	-1.729080	-0.805914	-1.548828	-0.213379	-0.493164
25081		-10.808637	2.173220	-36.769929	1.841446	-1.609439	-1.073403	-1.555176	-0.235840	-0.473389
25082		-6.063461	-9.532078	-48.970467	4.419047	-0.729340	0.835435	-1.571289	-0.231445	-0.443604
25083		0.320630	-14.042985	-10.624886	1.297299	-1.931184	2.202861	-1.592773	-0.195313	-0.416748
25084		30.858565	-12.671173	79.073093	-12.067182	4.872767	-0.727722	-1.559814	-0.152588	-0.537842
25085		28.942593	-7.755311	-13.052494	-11.301364	-0.720653	-3.852949	-1.588623	-0.179688	-0.466553
25086		27.320240	0.431505	-32.048119	4.411406	-6.185083	-0.529647	-1.620117	-0.197510	-0.372070
25087		22.281204	1.553044	-28.263408	9.680120	-1.547631	1.395149	-1.612793	-0.217773	-0.352051
25088		12.274401	5.584269	-14.995071	10.584224	2.241277	2.018091	-1.610352	-0.217773	-0.369385
25089		0.009486	6.094562	5.538755	3.031002	0.940513	0.688571	-1.615234	-0.215576	-0.343506
25090		-1.590564	2.618355	1.448060	-1.819126	-4.453677	-0.352670	-1.627197	-0.210938	-0.251465
25091		12.177768	4.909042	-10.781575	0.748535	-5.650864	1.277408	-1.646729	-0.181641	-0.153564
25092		24.302042	12.198159	-10.644807	2.924972	-4.809910	1.569391	-1.645020	-0.174561	-0.069824
25093		35.553800	21.424893	-6.720047	1.325016	-4.461087	-1.728039	-1.644287	-0.212891	0.010742
25094		32.042365	16.792685	-1.573540	-0.676718	-3.518974	-1.112414	-1.635254	-0.219482	0.066895
25095		20.933804	11.041692	-0.505990	-1.526145	-3.734252	0.588133	-1.626953	-0.208008	0.133545
25096		16.547037	6.200252	-4.314888	-1.747548	-4.737300	0.639377	-1.606934	-0.212402	0.204834
25097		17.547109	1.225621	-3.332602	-1.733289	-4.840152	0.632688	-1.591797	-0.200928	0.280273
25098		21.000297	0.560492	0.572847	-2.336056	-4.189373	0.592709	-1.571777	-0.200928	0.334229
25099		24.127819	1.134080	4.164979	-2.707613	-3.331341	0.339626	-1.553467	-0.211914	0.375732
25100		22.891992	-2.151622	6.547384	-2.667055	-2.793087	-0.125448	-1.539551	-0.232178	0.412842
25101		18.478758	-6.667674	8.361990	-2.162446	-3.156888	-0.497593	-1.514404	-0.247803	0.454590
25102		14.452474	-9.842318	11.017900	-1.383000	-3.553117	-0.784093	-1.486816	-0.272461	0.500732
25103		9.599307	-11.729705	12.324213	0.736845	-3.917980	-0.929994	-1.462158	-0.274658	0.563477
25104		5.595983	-11.913591	10.167537	3.712558	-4.284381	-0.626103	-1.433838	-0.251953	0.632324
25105		4.414497	-8.957724	4.492812	6.355326	-3.871920	0.071495	-1.402100	-0.195313	0.691650
25106		5.401357	-2.876470	0.265575	7.288033	-1.824895	0.850753	-1.397461	-0.134521	0.711670
25107		3.978037	1.382137	7.465333	6.340807	0.035344	1.081688	-1.401367	-0.080322	0.708252
25108		3.022095	2.667161	17.031152	3.388799	0.176435	0.801599	-1.406738	-0.057861	0.707764
25109		1.853969	4.557079	15.679257	1.025168	0.273531	0.556905	-1.405029	-0.039795	0.709473
25110		1.119465	11.115600	7.774227	1.833097	0.656464	0.237141	-1.414551	-0.026367	0.700439
25111		3.780807	13.138734	7.154079	3.106329	1.538821	-0.231021	-1.428467	-0.006104	0.665283
25112		2.910461	10.224085	8.216271	2.339754	2.573757	-0.584816	-1.448730	-0.006348	0.626221
25113		0.252614	7.176304	5.691838	0.755709	2.515685	-0.695679	-1.477783	-0.008789	0.597900
25114		0.109422	4.508160	4.090262	-0.342339	2.351781	-0.452709	-1.490967	-0.015625	0.563477
25115		1.329706	0.440725	3.547235	-1.150947	2.792710	-0.200416	-1.513184	-0.024658	0.524414
25116		2.487769	-4.156790	2.369079	-1.858980	3.020821	-0.104554	-1.532959	-0.033936	0.479248
25117		4.123453	-6.469732	1.369582	-2.138018	3.096108	-0.211532	-1.554932	-0.047363	0.440430
25118		5.557747	-5.992955	1.792115	-1.893505	3.350514	-0.447046	-1.572266	-0.061035	0.386719
25119		7.514928	-3.469019	2.032089	-1.551435	3.538744	-0.538735	-1.593994	-0.076904	0.341797
25120		11.018142	0.018866	0.406658	-1.097074	3.522552	-0.532963	-1.606934	-0.088379	0.288086
25121		17.324319	3.522444	-1.866503	-0.563653	3.350545	-0.765713	-1.624512	-0.095215	0.236328
25122		29.966636	7.374430	-3.676891	-0.500145	2.956180	-1.654687	-1.641357	-0.129150	0.196045
25123		34.164892	7.822341	-2.929505	-1.165526	3.502116	-2.201390	-1.648926	-0.163086	0.129883
25124		24.284195	6.057426	0.660512	-2.807458	4.248592	-1.221008	-1.654297	-0.187988	0.052979
25125		22.224466	4.980748	0.215191	-4.542201	3.411995	-0.336948	-1.663086	-0.190430	-0.007324
25126		25.817820	1.491786	-2.530207	-4.183079	3.362074	-0.070730	-1.662598	-0.188232	-0.080322
25127		28.775638	-0.882626	-1.672445	-2.962467	4.188300	-0.469285	-1.661865	-0.197510	-0.159668
25128		28.624435	-1.751757	0.859691	-2.297734	4.699762	-0.504331	-1.654785	-0.195313	-0.250000
25129		28.049917	-1.574730	1.396999	-2.154388	4.798597	-0.205831	-1.636230	-0.195313	-0.333740
25130		25.529288	0.306969	0.321899	-1.594940	4.765720	0.120137	-1.615723	-0.188721	-0.426025
25131		21.699564	2.880044	-0.357177	-0.761565	4.416295	0.229691	-1.588379	-0.179688	-0.494629
25132		17.922976	4.547647	0.311591	0.017101	3.761681	0.250189	-1.567871	-0.172852	-0.565430
25133		15.185805	5.081631	1.730040	0.145755	3.043432	0.333443	-1.547607	-0.168457	-0.614746
25134		13.419528	4.720431	1.726625	-0.548560	2.423903	0.376266	-1.531738	-0.161621	-0.655518
25135		11.806584	3.814458	0.395287	-1.458481	1.855283	0.342913	-1.507324	-0.141357	-0.681396
25136		9.852745	2.018239	-1.736957	-2.290829	1.431296	0.330558	-1.489746	-0.123291	-0.720215
25137		7.763478	-0.577195	-3.345015	-2.403888	0.942596	0.254032	-1.474365	-0.103027	-0.733398
25138		5.983723	-2.736271	-4.111129	-1.949875	0.324577	0.105901	-1.468262	-0.084961	-0.735840
25139		4.027886	-4.004115	-4.733881	-1.271383	-0.218669	-0.056357	-1.466309	-0.075928	-0.733887
25140		1.453438	-4.676455	-4.907383	-0.357348	-0.613902	-0.213230	-1.458984	-0.091797	-0.724854
25141		-1.057869	-4.691663	-5.450551	0.675846	-0.909445	-0.346124	-1.460938	-0.100830	-0.718262
25142		-3.434755	-4.321409	-6.359417	1.769808	-1.100081	-0.432761	-1.464844	-0.123291	-0.704834
25143		-5.835518	-3.705687	-7.213500	2.810146	-1.369401	-0.488577	-1.473389	-0.141357	-0.670166
25144		-7.568522	-2.609989	-7.497882	3.764356	-2.010228	-0.440516	-1.483887	-0.179443	-0.628418
25145		-8.359362	-1.749183	-8.083452	4.487098	-2.883767	-0.312249	-1.500977	-0.217773	-0.567627
25146		-7.969498	-1.084215	-8.145145	4.894650	-3.450837	-0.191977	-1.520752	-0.244873	-0.504883
25147		-6.708700	3.319571	-3.420516	3.206497	-3.577862	0.222804	-1.541260	-0.244873	-0.442871
25148		-3.918574	8.667457	0.510378	-0.354302	-3.108622	0.767740	-1.555908	-0.222168	-0.398438
25149		0.059640	11.780214	1.847445	-2.386444	-2.498007	0.872877	-1.574707	-0.201904	-0.371338
25150		5.546274	10.967035	4.043814	-2.811141	-2.537342	-0.065200	-1.581787	-0.201904	-0.321777
25151		12.973649	8.109402	9.083230	-2.161430	-2.576293	-1.041137	-1.590820	-0.210938	-0.283203
25152		21.604117	5.739042	18.293783	-0.573365	-1.127134	-1.603695	-1.596680	-0.238037	-0.282471
25153		28.491400	6.053206	30.017727	-0.539423	2.305473	-1.483415	-1.584717	-0.251465	-0.342285
25154		23.098476	4.134322	31.819131	-2.120959	4.996770	-1.038922	-1.563477	-0.265137	-0.425537
25155		9.679398	2.479253	18.728301	-2.614905	4.206185	-0.325061	-1.554443	-0.253906	-0.492188
25156		-3.365796	2.337675	-2.500016	-3.185869	1.657869	0.197381	-1.552490	-0.238037	-0.516357
25157		-12.078364	-3.802257	-33.565242	-1.458480	0.081771	-0.369393	-1.552246	-0.244873	-0.516113
25158		-14.149581	-15.679766	-50.211383	3.230433	-0.324078	0.051184	-1.567871	-0.258301	-0.481689
25159		-5.314104	-16.752428	-30.932990	6.495248	-3.077045	2.431423	-1.594238	-0.226807	-0.405273
25160		3.637371	-10.469470	20.011314	-0.532055	-1.813331	3.057229	-1.597656	-0.184082	-0.445068
25161		29.066657	-4.313249	57.567602	-13.735904	4.282650	-3.728063	-1.605469	-0.218018	-0.450928
25162		39.484487	3.078964	-41.947691	4.125645	-8.229555	-3.896093	-1.628906	-0.285400	-0.286133
25163		42.087751	16.454709	-36.598592	12.459086	-4.234533	0.799138	-1.642578	-0.294189	-0.219482
25164		23.909540	11.815302	-17.845704	10.353242	2.524768	1.643591	-1.631348	-0.289795	-0.256104
25165		5.993712	4.014902	9.761112	0.277795	2.890560	0.414427	-1.624512	-0.282959	-0.277588
25166		-3.378511	0.311316	4.010059	-4.476143	-2.636410	-0.505899	-1.636475	-0.276367	-0.217773
25167		3.863533	7.861405	-11.004823	-0.603750	-5.089069	1.097990	-1.646973	-0.249023	-0.119629
25168		11.245935	14.769973	-12.782079	2.349129	-4.861290	2.109367	-1.652832	-0.219727	-0.034424
25169		20.251531	17.566652	-7.514629	1.890650	-5.246294	0.359726	-1.648438	-0.230713	0.064941
25170		32.010842	17.089383	-5.287245	-0.642554	-5.170732	-1.731105	-1.630127	-0.253174	0.147461
25171		32.159458	9.825602	-1.731240	-1.637360	-4.067231	-0.999960	-1.618164	-0.280029	0.206299
25172		26.403943	4.252901	0.798930	-1.818564	-4.029773	-0.103154	-1.595703	-0.286621	0.267090
25173		24.846535	2.045629	0.479496	-2.243939	-4.023594	-0.116822	-1.577881	-0.291016	0.319092
25174		23.732275	-2.030467	2.080467	-3.262566	-3.003152	-0.300492	-1.559326	-0.311279	0.347900
25175		20.242659	-8.958712	6.106017	-3.263737	-2.284088	-0.554947	-1.542725	-0.333740	0.376709
25176		16.100790	-12.695718	10.425476	-1.843040	-3.125889	-0.336260	-1.522461	-0.340332	0.413574
25177		11.972528	-12.616409	13.732936	0.209529	-4.289122	-0.341208	-1.493408	-0.340088	0.485107
25178		8.995864	-10.088636	13.342508	3.217033	-4.621418	-0.548748	-1.467041	-0.328613	0.562744
25179		6.888459	-8.650089	7.261630	5.777597	-4.276354	-0.350317	-1.439453	-0.290039	0.637451
25180		6.490251	-6.190231	-0.782635	6.434270	-3.017269	0.181339	-1.418457	-0.244873	0.673340
25181		5.996805	-2.072557	-1.541717	5.667866	-1.302879	0.843855	-1.416016	-0.188721	0.697754
25182		4.383999	2.071839	8.439183	4.485669	-0.410754	1.066819	-1.412598	-0.150391	0.701172
25183		4.239204	6.472858	16.599515	2.901382	-0.439349	0.838571	-1.411377	-0.121094	0.708984
25184		4.694613	11.544914	14.535184	1.890256	-0.186808	0.520283	-1.405273	-0.098389	0.708740
25185		5.364933	15.251176	11.152778	1.999310	0.474217	0.079060	-1.416992	-0.089355	0.699707
25186		4.424702	12.685944	10.876950	1.514155	1.547969	-0.490555	-1.434814	-0.091797	0.675781
25187		1.483063	8.682958	8.432738	0.388863	2.471575	-0.849942	-1.452393	-0.098633	0.634766
25188		-1.390027	5.210649	4.669095	-0.145161	2.668434	-0.912757	-1.472168	-0.114502	0.600342
25189		-1.494946	1.236128	2.709508	-0.616828	2.402469	-0.620509	-1.489502	-0.128174	0.570313
25190		0.281417	-3.343450	3.174186	-1.560839	2.495175	-0.189062	-1.511963	-0.128418	0.531250
25191		2.733861	-7.484714	2.421966	-2.151464	2.791388	0.100840	-1.533936	-0.141846	0.488281
25192		4.875370	-9.232946	0.849635	-1.998026	3.158369	0.191167	-1.553711	-0.153320	0.445313
25193		6.201303	-9.016225	1.228904	-1.626654	3.538433	0.136743	-1.580566	-0.151367	0.384521
25194		6.999892	-8.066320	2.832228	-1.633326	3.770209	0.053089	-1.595947	-0.153564	0.322021
25195		7.801781	-6.574391	3.043657	-1.548718	3.827444	0.080445	-1.618164	-0.151611	0.265625
25196		10.117884	-3.336296	1.294156	-0.760055	3.777558	0.252855	-1.634033	-0.142578	0.202881
25197		14.593168	0.710126	-1.048546	0.423286	3.667645	0.282424	-1.649902	-0.133789	0.150635
25198		24.038088	5.001377	-2.591805	1.268441	3.304280	-0.215922	-1.658447	-0.140625	0.107666
25199		40.216808	10.349881	-3.824283	1.279273	3.040527	-1.368382	-1.666504	-0.158691	0.045654
25200		36.442628	11.540835	-0.765802	0.342407	4.306266	-1.367208	-1.670166	-0.179199	-0.027100
25201		26.205433	12.814782	1.227049	-2.096830	4.482839	-0.162957	-1.671875	-0.179443	-0.115234
25202		23.288237	11.508757	-0.921328	-3.455926	3.981747	0.080803	-1.671631	-0.172607	-0.190674
25203		24.414498	6.921083	-1.108192	-3.737304	4.299239	-0.419644	-1.657715	-0.168213	-0.278809
25204		26.956589	2.342329	-0.177277	-3.809502	4.531726	-0.650771	-1.645996	-0.168457	-0.364502
25205		27.865701	0.343654	-0.565701	-3.665566	4.617125	-0.380988	-1.627930	-0.155029	-0.457031
25206		25.974114	2.059900	-1.197559	-2.989726	4.571023	0.055112	-1.591797	-0.141357	-0.532227
25207		21.672706	5.210442	-1.032967	-2.212110	4.286903	0.343025	-1.569336	-0.125732	-0.609619
25208		17.035203	6.798653	0.966872	-1.723079	3.561291	0.597328	-1.538086	-0.105469	-0.667725
25209		14.517142	5.868437	2.087284	-1.849555	2.619388	0.709718	-1.516113	-0.078369	-0.710938
25210		12.612991	3.327432	1.415651	-2.205077	2.026504	0.938078	-1.487549	-0.046875	-0.745605
25211		10.668426	0.552557	-1.036010	-2.593699	1.532765	1.005793	-1.470215	-0.015137	-0.774170
25212		8.647034	-1.876295	-3.849970	-2.594840	1.001057	0.968797	-1.455566	0.018555	-0.785400
25213		6.730010	-3.955991	-5.757636	-2.208343	0.432864	0.741913	-1.444824	0.038818	-0.781494
25214		4.738441	-5.593651	-6.800935	-1.348672	-0.180084	0.395436	-1.440674	0.050049	-0.790283
25215		2.823621	-5.935397	-7.140806	-0.114712	-0.632319	0.074972	-1.436279	0.052490	-0.777344
25216		0.344295	-5.039995	-6.991968	1.059533	-0.826368	-0.211602	-1.437988	0.032227	-0.770508
25217		-2.934311	-3.946133	-6.340067	2.142214	-1.073928	-0.470062	-1.435059	0.005127	-0.748291
25218		-6.583867	-3.200927	-6.337231	3.263830	-1.517882	-0.725893	-1.442871	-0.028564	-0.732422
25219		-10.003101	-2.995395	-8.235925	4.702678	-2.040971	-0.960521	-1.457275	-0.082764	-0.694824
25220		-12.823143	-2.261846	-9.892183	5.945359	-2.719991	-0.998739	-1.473877	-0.132080	-0.637939
25221		-13.063637	4.050608	-6.202550	4.468563	-3.620078	-0.481914	-1.493896	-0.156982	-0.573242
25222		-8.476266	10.391943	-3.341370	1.173944	-3.871023	0.378848	-1.521484	-0.147949	-0.511475
25223		-2.375030	11.655925	-2.078840	-1.431123	-3.574468	0.838560	-1.538330	-0.125244	-0.458496
25224		3.331384	10.568273	-0.841990	-2.297205	-3.708374	0.208318	-1.561523	-0.118652	-0.400879
25225		9.841626	8.618020	5.141987	-0.990880	-3.634003	-0.595678	-1.577393	-0.127441	-0.336426
25226		19.040007	6.994038	15.644976	1.173129	-1.997103	-1.321073	-1.580811	-0.163574	-0.316406
25227		29.723498	6.972562	32.294482	1.052187	1.838868	-1.145952	-1.568848	-0.174805	-0.367432
25228		29.341821	5.928123	35.742586	-2.206375	4.611490	-0.379302	-1.553223	-0.161377	-0.451416
25229		18.475706	1.616967	19.199168	-4.973185	5.045989	-0.288655	-1.532959	-0.141113	-0.533447
25230		5.189931	3.063755	9.775001	-5.272682	2.704826	-0.018346	-1.527100	-0.109619	-0.568359
25231		-7.511311	6.751837	-0.138702	-5.796296	-0.044230	-0.094749	-1.534912	-0.080566	-0.562744
25232		-18.848052	5.272266	-15.575793	-5.660002	-2.014146	-1.259000	-1.550781	-0.078125	-0.541504
25233		-18.815812	-2.219473	-57.954733	1.165810	-0.417038	-1.904751	-1.555908	-0.134521	-0.527344
25234		-12.711931	-10.132200	-57.577789	12.399901	-2.340321	0.674256	-1.584473	-0.168213	-0.445313
25235		-0.064104	-9.669175	11.528317	8.630818	-3.470122	3.287913	-1.594971	-0.125488	-0.444336
25236		34.253774	-7.323761	122.172190	-25.073479	9.652174	-2.702337	-1.562500	-0.062500	-0.561523
25237		32.655094	-21.541414	-64.261913	-5.421764	-7.992315	-5.953433	-1.621582	-0.154785	-0.390381
25238		42.773988	13.400453	-50.012007	17.481392	-6.412314	1.183992	-1.638916	-0.188477	-0.308105
25239		28.007235	16.809717	-24.580198	17.545677	2.283937	1.562869	-1.626465	-0.215576	-0.333008
25240		12.917239	16.521953	16.249966	4.036345	4.163152	0.748589	-1.615479	-0.199707	-0.378418
25241		-5.261975	9.898976	13.967894	-8.256229	-1.750668	-0.090987	-1.629883	-0.186279	-0.333740
25242		-1.315975	0.568069	-18.175110	-1.226912	-4.021010	-0.777294	-1.632568	-0.181641	-0.260742
25243		8.993389	4.902823	-16.556579	3.527670	-3.738521	1.675337	-1.654297	-0.154541	-0.177979
25244		15.968891	7.221546	-7.945679	3.676774	-4.991662	1.301702	-1.654785	-0.152100	-0.079102
25245		33.312847	13.405317	-0.768491	1.067512	-5.538874	-0.982407	-1.649902	-0.181396	0.018555
25246		42.617879	15.969435	-2.497553	-1.110625	-4.660778	-0.886430	-1.645508	-0.185791	0.085449
25247		27.942191	13.868695	-1.792743	-1.297841	-3.161250	0.748598	-1.634766	-0.176514	0.134766
25248		16.197953	12.761905	-1.927818	-1.286905	-2.840997	0.160067	-1.621582	-0.174316	0.180176
25249		16.326362	6.277170	0.166948	-2.280931	-3.630148	-0.333025	-1.603271	-0.194336	0.239014
25250		20.328866	-1.089230	2.891320	-3.621250	-3.353531	-0.797393	-1.589111	-0.216797	0.269775
25251		21.229098	-8.510999	6.278763	-3.508345	-2.495465	-0.822415	-1.574707	-0.248291	0.302979
25252		17.515126	-13.214933	9.907509	-2.456995	-2.788606	-0.607467	-1.551758	-0.261719	0.340332
25253		13.364333	-13.638058	13.101299	-0.924882	-3.392071	-0.838930	-1.531006	-0.279541	0.394775
25254		10.132921	-13.347739	13.054974	1.395275	-3.523825	-0.858903	-1.506592	-0.279297	0.446777
25255		8.018779	-13.212601	8.640256	4.063386	-3.238238	-0.558621	-1.493652	-0.265625	0.504883
25256		6.688262	-10.378976	1.691660	6.234157	-2.351969	0.156398	-1.481934	-0.216064	0.544678
25257		5.638284	-4.330863	-2.018962	7.271493	-1.103416	0.896721	-1.481445	-0.166504	0.560791
25258		3.209414	2.037731	3.440079	7.085876	-0.250266	1.391509	-1.472412	-0.101074	0.572266
25259		1.613214	6.984963	9.432277	5.813439	-0.205653	1.154692	-1.478516	-0.051514	0.572998
25260		2.247830	11.087656	10.368092	4.118192	-0.116546	0.724983	-1.472656	-0.026855	0.572510
25261		2.645480	15.040895	10.008712	2.563090	0.263717	0.271309	-1.477783	-0.006592	0.563232
25262		2.947253	15.328214	10.387014	0.858303	1.112611	-0.418302	-1.490723	-0.022217	0.546387
25263		1.982417	12.284487	8.518902	-0.813126	1.872352	-0.895707	-1.498779	-0.042725	0.518799
25264		0.725928	7.592463	5.561116	-1.466752	2.067512	-1.088697	-1.520264	-0.072021	0.484619
25265		0.651901	2.236971	4.301754	-1.273609	2.379025	-0.968813	-1.531250	-0.078857	0.443848
25266		0.867452	-3.393684	3.976013	-1.489133	2.618527	-0.623451	-1.550781	-0.094727	0.409424
25267		1.354043	-7.805928	2.972507	-1.943338	2.691892	-0.238957	-1.561279	-0.113037	0.368896
25268		1.823689	-9.354174	2.321196	-1.829287	2.849086	0.038174	-1.577148	-0.104004	0.318848
25269		2.487008	-8.246140	2.773515	-1.257078	3.102845	0.216555	-1.597412	-0.104248	0.275635
25270		3.550116	-4.731249	3.037247	-0.590616	3.238956	0.304175	-1.606201	-0.097412	0.223633
25271		6.430676	0.475472	1.990813	0.095273	3.203233	0.311426	-1.631348	-0.084229	0.182129
25272		11.872752	5.086832	0.377057	0.613829	3.059318	0.091151	-1.635742	-0.079834	0.132568
25273		22.391278	8.866580	-0.311571	0.341341	2.683738	-0.849884	-1.650635	-0.102295	0.093994
25274		40.840922	14.434488	-1.159692	-1.086304	2.444763	-2.883250	-1.653076	-0.158691	0.045898
25275		35.092847	12.141234	0.940616	-2.574770	4.061805	-2.726786	-1.660645	-0.188232	-0.031006
25276		22.798790	10.423470	4.102594	-4.432027	4.146368	-0.786181	-1.655518	-0.197266	-0.103760
25277		22.261304	7.329866	1.423329	-5.621799	3.174827	0.140033	-1.662354	-0.183838	-0.168701
25278		25.834195	2.505962	-0.201658	-5.021393	3.703795	0.024452	-1.657715	-0.172607	-0.250732
25279		28.119842	-0.412985	0.926642	-4.042183	4.524981	-0.309133	-1.648438	-0.168213	-0.338867
25280		29.364156	-0.610014	1.246572	-3.383725	4.917237	-0.310887	-1.618652	-0.163818	-0.430908
25281		29.120301	0.061991	0.392078	-2.254281	4.963553	0.026239	-1.598145	-0.152588	-0.519043
25282		26.453510	1.791478	1.370184	-1.232755	4.740843	0.472382	-1.569092	-0.134766	-0.603027
25283		21.451913	2.920721	3.269615	-0.796163	4.266238	0.854211	-1.537598	-0.116699	-0.676025
25284		18.081537	2.869667	4.005663	-0.742366	3.561602	0.931078	-1.501709	-0.096436	-0.731934
25285		15.693845	2.521836	2.726759	-1.100472	2.950294	1.048587	-1.477539	-0.069336	-0.781494
25286		13.889052	2.437789	0.079031	-1.754022	2.364087	0.996401	-1.448975	-0.037842	-0.822754
25287		11.802452	2.234850	-2.966941	-2.640174	1.803713	0.808971	-1.422607	-0.008545	-0.846680
25288		9.515261	1.335936	-5.283605	-2.990397	1.194106	0.540811	-1.398682	0.018555	-0.864258
25289		6.199003	-0.322320	-6.366832	-2.494777	0.693901	0.280276	-1.387939	0.038818	-0.875244
25290		2.481476	-2.079804	-6.344227	-1.277648	0.117716	-0.090560	-1.379150	0.045654	-0.873047
25291		-0.963128	-3.210467	-6.103776	0.140643	-0.401430	-0.473736	-1.374023	0.027832	-0.868408
25292		-3.525116	-4.140261	-5.556770	1.375665	-0.707433	-0.704752	-1.375488	0.000732	-0.859131
25293		-5.252315	-4.310176	-5.336676	2.259749	-1.033914	-0.698754	-1.379150	-0.028564	-0.841309
25294		-6.241399	-3.594665	-6.070128	2.954191	-1.501855	-0.559302	-1.387207	-0.062256	-0.819092
25295		-6.979482	-2.479123	-7.480904	3.586193	-1.917989	-0.336180	-1.399902	-0.091553	-0.792725
25296		-8.575001	-1.406085	-8.947202	3.918479	-2.292591	-0.090066	-1.417236	-0.123291	-0.747070
25297		-10.932884	-0.058578	-10.265799	3.357665	-2.557339	0.149252	-1.439209	-0.147949	-0.706055
25298		-10.794612	4.292236	-8.071124	1.350246	-2.628566	0.591658	-1.455811	-0.134521	-0.659180
25299		-6.716105	7.531762	-4.619282	-0.860248	-3.162565	1.080921	-1.488281	-0.111816	-0.606445
25300		0.220234	6.988877	-3.671782	-2.382320	-3.888356	0.728328	-1.514648	-0.078125	-0.543213
25301		5.935812	5.062343	-1.255748	-2.014104	-4.354137	0.213201	-1.542236	-0.075928	-0.474854
25302		10.525673	4.350596	5.559358	0.142645	-4.149487	-0.308238	-1.567139	-0.087158	-0.401855
25303		16.770947	4.630406	17.639461	3.180413	-2.397130	-0.898103	-1.575195	-0.123047	-0.381836
25304		27.853199	3.615380	34.950615	4.293674	1.491918	-0.991660	-1.565186	-0.141113	-0.413330
25305		28.446748	3.795515	36.208726	-0.391500	4.792931	-0.469355	-1.544678	-0.134521	-0.505859
25306		16.148795	1.176565	27.189857	-4.042905	4.827407	-0.333592	-1.531494	-0.109619	-0.568604
25307		0.134694	2.190144	10.914191	-5.487405	0.436583	-0.080387	-1.537109	-0.082764	-0.558594
25308		-10.882382	-0.840831	-18.537231	-2.299131	-2.329333	-0.457140	-1.550537	-0.089355	-0.530518
25309		-10.117362	-6.477743	-49.400668	3.982677	-1.201906	-0.443166	-1.560791	-0.123291	-0.506348
25310		-2.312804	-8.941185	-40.467101	9.142552	-1.982453	1.485715	-1.585938	-0.127686	-0.446289
25311		5.206117	-6.843683	5.892756	3.033042	-2.209142	1.731731	-1.595459	-0.112061	-0.451172
25312		35.063308	-4.274766	73.901700	-14.151919	5.510886	-3.318124	-1.577148	-0.109863	-0.517578
25313		25.971511	-1.133854	-33.888772	-4.673051	-4.798536	-3.251029	-1.615234	-0.136719	-0.409912
25314		24.590522	6.554545	-34.648933	8.226170	-5.369478	0.620184	-1.626221	-0.154785	-0.330078
25315		19.397997	7.160725	-28.517559	12.457926	-0.314575	1.974607	-1.623779	-0.163818	-0.323486
25316		6.121139	7.800998	-6.500513	8.489648	2.280026	1.507946	-1.623779	-0.159180	-0.338623
25317		-4.131262	6.195609	10.626881	-1.320634	-1.033598	0.096800	-1.637939	-0.152344	-0.278809
25318		4.119890	6.223670	-2.811737	-2.717002	-6.489862	0.617859	-1.648682	-0.123047	-0.163574
25319		23.440912	14.383542	-12.181266	1.097327	-6.495999	2.446712	-1.659424	-0.089111	-0.052734
25320		38.035169	22.315789	-9.304839	1.940519	-5.198772	-0.615531	-1.652100	-0.113770	0.025391
25321		36.145586	16.690514	-3.472778	-0.660899	-3.517547	-1.491961	-1.644775	-0.140625	0.084229
25322		22.030974	8.947375	0.459329	-2.467310	-3.117287	0.411516	-1.634277	-0.126953	0.142334
25323		17.050769	4.374415	-1.960224	-2.813045	-4.328138	0.409928	-1.618652	-0.131348	0.211426
25324		20.035976	-0.848430	-1.762641	-2.377757	-4.643693	0.111660	-1.596436	-0.133545	0.284912
25325		24.413127	-5.188382	2.647190	-2.398587	-3.726741	-0.271826	-1.584473	-0.160400	0.328857
25326		24.218831	-9.165490	7.929062	-2.481487	-2.382068	-0.565670	-1.563477	-0.180420	0.361816
25327		17.470735	-11.026070	10.009582	-1.701896	-2.750527	-0.332682	-1.552246	-0.189453	0.407471
25328		11.645274	-8.623993	11.266046	0.007654	-3.873927	-0.366628	-1.527588	-0.189209	0.463623
25329		8.626102	-5.710208	11.454340	2.628378	-4.156164	-0.518706	-1.500977	-0.189209	0.532959
25330		6.837148	-4.887327	9.425583	5.093047	-4.376045	-0.515765	-1.472656	-0.164063	0.599365
25331		6.880422	-4.702301	3.370763	5.992900	-3.432205	-0.235946	-1.453857	-0.123535	0.645996
25332		6.116921	-3.148097	-0.056432	5.491793	-1.366373	0.429746	-1.441895	-0.078369	0.649414
25333		3.228495	-0.993467	7.421689	4.535330	0.035876	0.938129	-1.447754	-0.040039	0.650635
25334		1.655032	2.062935	14.488218	2.831683	-0.126139	1.037516	-1.446289	-0.015381	0.656494
25335		1.878561	6.181633	11.793406	1.649193	-0.141702	0.932281	-1.444824	0.013916	0.649414
25336		2.721190	12.016305	7.968615	2.013947	0.023290	0.399650	-1.449951	0.029785	0.651123
25337		4.472811	12.372453	9.287882	1.925280	0.915903	-0.400245	-1.456787	0.029785	0.631592
25338		2.570243	9.122700	8.819639	0.763935	2.042433	-0.890417	-1.483154	0.018311	0.594971
25339		-0.354266	6.277504	5.400934	-0.044038	2.242123	-1.056054	-1.496094	0.004639	0.569336
25340		-1.069216	3.376634	3.717175	-0.354436	1.968273	-0.879104	-1.506836	-0.008789	0.541504
25341		-0.096017	-0.418587	3.692298	-0.775707	2.101257	-0.518428	-1.524658	-0.015625	0.513428
25342		1.151034	-4.253767	3.230284	-1.284656	2.312949	-0.198067	-1.539795	-0.027100	0.481201
25343		2.801366	-6.517747	1.829564	-1.391186	2.428348	-0.079803	-1.564453	-0.029541	0.442139
25344		4.239389	-6.168054	2.079688	-1.101250	2.772802	-0.101566	-1.586670	-0.036377	0.403320
25345		5.234281	-3.723112	3.216832	-0.865713	3.084208	-0.135278	-1.602295	-0.034180	0.357666
25346		7.499778	-0.074679	2.161958	-0.642076	3.140418	-0.073396	-1.622314	-0.036621	0.305908
25347		12.143835	3.633116	-0.581534	-0.002928	2.921898	-0.174794	-1.635742	-0.034424	0.271240
25348		22.240697	7.051068	-3.535737	0.487738	2.382712	-0.965657	-1.653076	-0.050293	0.239014
25349		38.410818	11.544073	-5.754318	0.194983	2.196772	-2.432803	-1.669434	-0.100098	0.192627
25350		29.875742	10.860154	-2.040874	-1.256891	3.819076	-2.143383	-1.679443	-0.127197	0.122070
25351		17.996380	11.480477	2.393360	-4.450292	3.906583	-0.723216	-1.694580	-0.138672	0.062012
25352		17.710644	8.437982	-0.161556	-6.388684	2.657880	0.049647	-1.700928	-0.136475	0.001709
25353		22.901703	1.708952	-2.430152	-5.515000	2.921043	-0.289182	-1.700439	-0.147705	-0.058350
25354		27.002133	-1.782181	-1.662456	-4.322200	3.620674	-0.930210	-1.701660	-0.161377	-0.128906
25355		30.442718	-3.308804	0.192273	-3.527817	3.814448	-0.817918	-1.696777	-0.166016	-0.208496
25356		33.665566	-2.564089	0.887685	-3.152263	4.027071	-0.319135	-1.687256	-0.163818	-0.294434
25357		31.514494	0.826101	0.775016	-2.636780	4.275679	0.199683	-1.676025	-0.150391	-0.371826
25358		25.103399	5.114949	-0.341297	-1.965392	4.287736	0.374961	-1.651123	-0.134766	-0.453613
25359		19.812821	6.916144	-0.364765	-1.346458	3.677469	0.262719	-1.628418	-0.125732	-0.522217
25360		16.989808	5.574735	-0.108674	-1.073539	2.787093	0.107093	-1.601563	-0.112305	-0.571777
25361		15.042157	3.441889	-0.427173	-1.193843	2.275407	0.147380	-1.587891	-0.112305	-0.614502
25362		13.102629	1.068386	-2.610119	-1.863167	2.045741	0.043306	-1.565430	-0.096436	-0.657471
25363		10.158523	-1.764490	-5.161623	-2.269459	1.920829	0.074150	-1.541016	-0.076172	-0.694336
25364		6.897821	-4.575074	-6.681034	-2.054665	1.613059	0.094643	-1.518555	-0.064941	-0.728516
25365		3.580981	-6.440671	-6.953824	-1.387634	1.092295	0.147866	-1.500732	-0.055908	-0.741455
25366		0.569374	-6.694391	-6.618114	-0.127280	0.394318	0.243686	-1.489502	-0.053467	-0.745605
25367		-1.713029	-5.478773	-6.146872	1.200957	-0.166418	0.344209	-1.487061	-0.060303	-0.749756
25368		-3.173038	-3.769210	-5.640132	2.107525	-0.407051	0.304869	-1.479736	-0.075928	-0.742676
25369		-4.628340	-2.398007	-4.722291	2.725092	-0.546567	0.222091	-1.477051	-0.089600	-0.727295
25370		-5.719109	-1.076660	-3.981673	2.763254	-0.675628	0.155664	-1.483398	-0.107666	-0.720459
25371		-6.680773	-0.434370	-4.707457	2.477238	-0.519711	-0.052321	-1.478271	-0.123291	-0.713623
25372		-8.434158	0.301515	-5.632694	2.159186	-0.067117	-0.219998	-1.479980	-0.145752	-0.717285
25373		-9.958694	4.698199	-4.573188	0.339714	0.363401	0.135154	-1.478271	-0.127930	-0.722168
25374		-9.934863	9.363769	-4.511523	-2.711826	0.095747	0.759648	-1.483887	-0.096191	-0.712158
25375		-5.374034	10.669323	-2.994562	-2.740534	-1.602467	0.172443	-1.502686	-0.080566	-0.676270
25376		1.445779	8.774582	1.790044	-0.332952	-3.456901	-0.643999	-1.534180	-0.091797	-0.614258
25377		7.875528	5.330154	7.589213	1.855612	-4.032809	-1.213137	-1.564941	-0.130127	-0.547119
25378		13.076713	3.090721	17.248004	4.039067	-2.716850	-1.485087	-1.576904	-0.181885	-0.513672
25379		17.313869	5.602389	30.153117	4.068860	0.424567	-1.248778	-1.575928	-0.213379	-0.525879
25380		17.344564	8.534880	35.012934	-0.107492	2.577776	-0.602057	-1.566650	-0.211182	-0.579590
25381		9.937682	6.883828	22.710625	-4.222819	2.625345	-0.147686	-1.565186	-0.179688	-0.625488
25382		-1.166747	7.798834	-0.207255	-4.866255	0.235915	0.385249	-1.575439	-0.141602	-0.620117
25383		-7.067744	4.880537	-28.345426	-2.876891	-2.538518	0.557126	-1.605713	-0.121338	-0.573730
25384		-5.928845	-9.907388	-50.097362	3.215545	-2.030430	0.745923	-1.623291	-0.143799	-0.539063
25385		2.526779	-13.784864	-24.619755	7.430129	-1.109473	0.737974	-1.650146	-0.157227	-0.504639
25386		43.101400	-21.735978	63.404761	-6.476313	1.815582	-1.511529	-1.618408	-0.145996	-0.590576
25387		51.769962	-18.035766	5.236354	-14.580252	1.461455	-6.404387	-1.626465	-0.182129	-0.574707
25388		13.748931	3.166260	-32.701366	4.798591	-3.223346	-0.035870	-1.650879	-0.202393	-0.512207
25389		12.138612	7.626355	-30.964710	12.409235	-1.894522	2.191216	-1.663818	-0.227051	-0.470947
25390		7.259507	10.281255	-24.315363	13.056863	0.408364	2.400352	-1.654297	-0.242920	-0.453125
25391		-2.808524	9.063509	-3.745968	5.057780	1.562050	0.966258	-1.652100	-0.242920	-0.459717
25392		-7.704358	5.394220	7.895740	-2.974019	-2.508563	-0.806723	-1.677246	-0.245117	-0.376221
25393		3.617924	7.180567	-5.065987	-1.434729	-7.063211	0.980517	-1.706299	-0.211182	-0.248291
25394		19.651926	13.484401	-11.502034	2.516818	-6.040650	2.926139	-1.721680	-0.170410	-0.135498
25395		39.285484	22.874430	-8.370461	2.806308	-5.380639	-0.563985	-1.723145	-0.213135	-0.035645
25396		42.693057	21.193441	-4.278459	-1.328499	-3.704312	-1.744584	-1.711670	-0.224365	0.012207
25397		23.136270	11.812936	2.720462	-2.510078	-2.013838	0.778366	-1.703369	-0.210693	0.050781
25398		14.288772	7.169153	1.676748	-2.511809	-3.524370	0.693743	-1.692383	-0.210693	0.119629
25399		17.528534	0.526611	0.266142	-2.424028	-4.421097	0.039921	-1.683594	-0.217285	0.184570
25400		22.314302	-4.389346	3.079142	-2.979878	-3.594409	-0.375130	-1.660645	-0.230713	0.230225
25401		21.989808	-7.549708	7.345328	-3.196072	-2.514595	-0.430595	-1.648926	-0.250732	0.263184
25402		17.729986	-9.737407	9.636027	-2.519372	-2.491677	-0.425707	-1.639648	-0.264160	0.300293
25403		13.827395	-10.026125	10.009867	-0.811324	-3.244494	-0.547008	-1.619141	-0.277588	0.352539
25404		10.798479	-10.569775	9.938362	1.082430	-3.513948	-0.607941	-1.599121	-0.279785	0.410889
25405		7.508603	-10.254637	7.994571	3.104919	-3.381845	-0.476178	-1.579590	-0.261475	0.471191
25406		5.335577	-7.510767	2.850259	5.348238	-2.753137	-0.146236	-1.562744	-0.234375	0.520264
25407		4.226081	-3.088952	-1.922749	6.809315	-2.165067	0.368564	-1.548584	-0.189209	0.560303
25408		4.150499	1.702885	-2.583064	6.556369	-1.714190	0.885477	-1.541260	-0.139648	0.584961
25409		3.086882	6.347260	4.495181	5.332752	-0.915714	1.096151	-1.540527	-0.094482	0.596680
25410		2.020192	10.391085	11.243869	3.860494	-0.473586	0.883003	-1.539307	-0.067383	0.602539
25411		2.473500	13.742322	12.918933	1.721410	-0.230206	0.395979	-1.535156	-0.053955	0.608643
25412		3.447495	13.409277	12.043561	-0.516204	-0.020118	-0.207052	-1.536865	-0.069580	0.604736
25413		3.425732	10.715659	8.995655	-1.855333	0.869506	-0.675696	-1.549805	-0.090088	0.587891
25414		2.161966	7.309746	6.031498	-2.050339	1.669055	-0.921345	-1.562256	-0.114990	0.553955
25415		1.058031	3.491730	4.407829	-1.708772	1.987136	-0.956165	-1.579346	-0.142090	0.528564
25416		1.076424	-1.090790	3.938088	-1.504419	2.119620	-0.773262	-1.594482	-0.155762	0.496338
25417		2.061470	-5.764631	3.839340	-1.825660	2.342360	-0.423764	-1.609619	-0.169189	0.455566
25418		3.279929	-10.118065	2.965583	-2.207084	2.541808	-0.044120	-1.627197	-0.180664	0.410400
25419		4.572660	-12.884161	2.084087	-2.071435	2.783560	0.277373	-1.649658	-0.174072	0.373291
25420		5.836355	-12.867534	2.710189	-1.336670	3.027186	0.485149	-1.674561	-0.169678	0.316895
25421		7.701601	-9.299852	2.941086	-0.393132	3.243668	0.652227	-1.695068	-0.154053	0.268799
25422		10.710886	-3.211640	1.046416	0.933069	3.449612	0.764274	-1.713379	-0.136230	0.216553
25423		16.622492	2.829831	-1.998378	2.121720	3.296288	0.398550	-1.727051	-0.125000	0.166504
25424		30.813989	9.786590	-3.063489	2.336132	2.784375	-0.751963	-1.739990	-0.138672	0.121582
25425		39.727975	15.440767	-2.016520	1.107508	3.270076	-1.640695	-1.745850	-0.158936	0.052979
25426		25.960260	17.427743	2.598799	-1.442420	4.536837	-0.861486	-1.756348	-0.170410	-0.030762
25427		19.578595	16.559294	1.946739	-4.035206	3.518813	-0.219380	-1.760254	-0.172852	-0.095215
25428		23.408670	9.872629	-2.100177	-4.273137	3.032453	-0.161053	-1.753418	-0.168457	-0.164063
25429		26.337734	2.327968	-2.791951	-3.925919	3.730712	-0.310419	-1.755127	-0.173096	-0.241455
25430		27.961159	-2.058928	-1.308586	-3.740411	4.244223	-0.297238	-1.743408	-0.164063	-0.338135
25431		28.094266	-2.181525	0.312444	-3.618925	4.515478	0.162375	-1.730225	-0.139404	-0.424561
25432		26.408328	0.979483	0.108625	-3.147146	4.576994	0.565729	-1.703369	-0.116943	-0.515137
25433		22.986164	4.158189	-0.560355	-2.068553	4.276669	0.526618	-1.674316	-0.094482	-0.599121
25434		18.924733	5.517544	0.249001	-1.179597	3.688913	0.514530	-1.642822	-0.078613	-0.663574
25435		16.043737	4.734957	1.134901	-0.986550	2.938002	0.343421	-1.618164	-0.067383	-0.719238
25436		13.736777	3.244648	1.076372	-1.242540	2.477366	0.358386	-1.586670	-0.051514	-0.762207
25437		11.665602	1.597961	-0.407045	-1.693684	2.029284	0.327575	-1.560059	-0.033447	-0.801025
25438		9.796003	-0.163275	-2.604824	-1.947191	1.509080	0.259488	-1.533447	-0.010986	-0.831055
25439		7.882271	-1.957306	-4.674047	-1.832901	1.060803	0.190817	-1.515625	0.000244	-0.848389
25440		5.775587	-3.219815	-5.814911	-1.357489	0.581568	0.129474	-1.500244	0.018311	-0.859375
25441		3.470881	-3.686546	-6.214688	-0.689241	-0.000870	-0.034856	-1.491211	0.018311	-0.859131
25442		1.499997	-3.157513	-6.453100	0.037134	-0.423229	-0.112520	-1.486328	0.004883	-0.856689
25443		-0.597438	-2.552745	-6.382067	0.767480	-0.654562	-0.220372	-1.486328	0.002686	-0.841553
25444		-3.160293	-1.681844	-5.922974	1.420025	-0.941672	-0.231488	-1.485840	-0.015381	-0.823975
25445		-5.802110	-1.060769	-5.958399	2.011707	-1.369072	-0.236036	-1.494385	-0.035645	-0.799805
25446		-8.276893	-1.951019	-7.535091	2.848439	-1.930765	-0.415997	-1.504639	-0.073975	-0.769043
25447		-10.434079	-3.331358	-8.812044	3.919688	-2.488448	-0.634614	-1.517090	-0.112305	-0.727295
25448		-10.422824	0.748199	-3.878893	2.835233	-2.839546	-0.178235	-1.553223	-0.118896	-0.676270
25449		-7.801329	6.413816	-0.378690	-0.295019	-2.871420	0.980005	-1.559082	-0.089600	-0.631836
25450		-4.077004	8.512086	-0.906544	-2.559646	-2.656268	1.439663	-1.592041	-0.058105	-0.583496
25451		1.100151	5.087906	-0.577930	-2.128940	-3.142282	0.565593	-1.619873	-0.044678	-0.524170
25452		6.756971	1.984371	3.182604	-0.522199	-3.576402	-0.205716	-1.633545	-0.049072	-0.466064
25453		12.025411	0.533795	8.304612	1.322122	-2.395606	-0.729103	-1.648682	-0.073730	-0.431396
25454		17.503944	-1.369884	16.054718	3.723437	-0.202603	-1.200465	-1.654297	-0.112061	-0.437012
25455		23.000703	-0.346745	27.614945	3.818483	2.222794	-1.074459	-1.641846	-0.141602	-0.481201
25456		22.571545	-0.025929	25.713349	0.145857	4.158381	-0.860792	-1.623047	-0.150635	-0.558105
25457		13.151862	2.477543	21.956943	-2.326635	4.305771	-0.633528	-1.604980	-0.139404	-0.629150
25458		-1.335172	8.805437	4.467526	-3.034139	1.978274	-0.241718	-1.605469	-0.121338	-0.651123
25459		-13.370822	12.739108	-22.831378	-1.109132	-1.311002	-0.610958	-1.627686	-0.137207	-0.610107
25460		-15.276873	7.418668	-53.487015	4.787883	-2.341830	-0.497452	-1.653809	-0.177734	-0.560303
25461		-6.959114	-0.097076	-45.767400	10.346228	-2.543949	1.226572	-1.676025	-0.197998	-0.480469
25462		11.343661	-8.922854	43.931905	0.761374	-0.767986	0.258317	-1.660889	-0.164307	-0.588623
25463		53.968374	-16.654445	49.894560	-25.287542	6.215587	-5.627433	-1.669678	-0.170898	-0.575684
25464		40.419180	-11.011721	-56.745359	4.288595	-7.939029	-1.123289	-1.703369	-0.195801	-0.457275
25465		26.793808	0.941260	-26.243448	11.336417	-1.234711	2.665943	-1.703369	-0.200195	-0.448486
25466		14.752549	2.144173	-8.689204	8.575442	2.882137	2.048548	-1.691895	-0.195801	-0.476563
25467		1.811653	4.147859	1.154074	2.100542	1.345495	1.206612	-1.694580	-0.184326	-0.463867
25468		-4.287920	5.324172	-2.705100	-0.146616	-3.405082	0.637734	-1.708984	-0.173096	-0.378418
25469		2.637729	9.259497	-13.523904	2.624615	-5.784538	1.577052	-1.732910	-0.152588	-0.262939
25470		12.079622	16.151451	-14.497926	4.592278	-5.569139	2.779290	-1.746338	-0.109863	-0.150391
25471		21.157749	26.066691	-8.801554	2.576468	-5.683335	0.811051	-1.748535	-0.127686	-0.033691
25472		35.912645	32.546300	-5.460165	-1.227107	-5.811236	-3.511314	-1.733398	-0.192871	0.060547
25473		34.975336	18.662575	-0.403655	-2.625290	-3.963035	-1.202522	-1.722168	-0.199463	0.121094
25474		23.858891	8.488684	-3.366674	-3.752225	-4.310527	0.380578	-1.706787	-0.201416	0.198730
25475		21.276379	-0.082919	-6.602095	-4.118032	-4.539279	0.405540	-1.690918	-0.212646	0.261719
25476		22.913473	-7.671511	-1.667309	-4.749810	-3.782611	0.255066	-1.672607	-0.228271	0.309570
25477		22.737559	-14.735000	4.938226	-4.596917	-2.537676	-0.252281	-1.649414	-0.250732	0.338623
25478		20.525396	-18.188922	9.638947	-2.755784	-2.739647	-0.097236	-1.628906	-0.261719	0.384277
25479		16.442933	-15.730467	12.296129	-0.444676	-3.638698	0.015353	-1.611084	-0.259521	0.436035
25480		10.986867	-11.182227	13.406514	2.260348	-3.790269	-0.335642	-1.572998	-0.257080	0.499023
25481		6.469466	-7.286394	12.332001	4.793976	-4.136338	-0.414700	-1.547119	-0.231934	0.576172
25482		5.097561	-5.798116	6.070868	6.210169	-4.071023	-0.126602	-1.524170	-0.188965	0.644531
25483		6.561825	-3.861433	0.088661	6.556026	-2.175027	0.167486	-1.514404	-0.143799	0.667236
25484		5.046109	-1.487193	4.130154	5.945006	-0.096461	0.507680	-1.511230	-0.101074	0.661865
25485		2.699479	2.021497	12.352925	4.806808	0.160754	0.718349	-1.510742	-0.051514	0.662842
25486		2.908024	7.819178	14.518975	3.625859	0.141328	0.743283	-1.516113	-0.022217	0.657715
25487		3.459737	14.644343	11.109077	2.981133	0.567647	0.522487	-1.521484	0.002441	0.642090
25488		3.344998	17.600542	7.958995	2.585303	1.284313	0.118252	-1.533203	0.020508	0.619873
25489		2.074611	14.545802	6.660436	1.564652	2.109122	-0.273987	-1.560059	0.018066	0.583008
25490		-1.049626	9.418416	3.485635	0.405303	2.701916	-0.655264	-1.572998	0.006592	0.540039
25491		-2.962666	4.280686	1.746278	-0.561345	2.381122	-0.779429	-1.583740	-0.002441	0.507813
25492		-1.331948	-0.687445	2.159001	-1.750421	1.768739	-0.472985	-1.605713	-0.020508	0.484375
25493		1.641650	-4.278144	2.912855	-2.619786	2.127439	-0.161843	-1.625488	-0.031982	0.451904
25494		3.071002	-6.234009	1.919366	-2.563648	2.631395	-0.111756	-1.642822	-0.045410	0.406738
25495		4.230494	-6.537517	0.767923	-2.102736	2.922394	-0.233737	-1.660645	-0.050049	0.359375
25496		5.022696	-5.518366	1.373155	-1.732330	3.203060	-0.318138	-1.685059	-0.057129	0.316162
25497		5.831214	-4.048000	3.389966	-1.779831	3.241276	-0.316750	-1.704834	-0.063965	0.264404
25498		8.326271	-1.565835	2.801922	-1.643390	3.144964	-0.165449	-1.722412	-0.066406	0.208252
25499		13.233900	1.747768	-0.647108	-0.541710	3.059086	-0.096570	-1.744873	-0.068604	0.169189
25500		23.352640	5.212972	-3.768633	0.568533	2.695926	-0.690900	-1.750977	-0.082275	0.126465
25501		41.142646	9.255619	-6.086888	0.679676	2.321181	-2.106162	-1.758545	-0.120605	0.082031
25502		33.830168	8.252464	-2.734611	-0.461565	3.924015	-1.938949	-1.764160	-0.143311	0.002930
25503		22.140033	9.557179	1.430441	-3.218480	4.010446	-0.608404	-1.774658	-0.152588	-0.067871
25504		22.443313	8.193500	-1.535371	-5.195827	2.946413	-0.032546	-1.781250	-0.150391	-0.132568
25505		25.502624	2.844730	-2.514304	-4.403708	3.313946	-0.351841	-1.774170	-0.145996	-0.201416
25506		26.099669	-1.259520	-0.444887	-3.565260	4.016886	-0.696149	-1.755371	-0.157227	-0.293457
25507		26.613516	-3.240554	0.549517	-3.252557	4.231143	-0.450405	-1.741699	-0.143799	-0.370850
25508		26.339816	-2.708178	0.121885	-2.475617	4.216461	-0.073941	-1.723389	-0.137207	-0.456787
25509		23.741152	0.744356	0.336696	-1.544058	4.138613	0.209311	-1.696289	-0.125977	-0.536377
25510		20.004929	4.490415	0.904537	-0.910761	3.681893	0.356754	-1.676025	-0.112549	-0.607178
25511		16.925351	6.518915	2.277781	-0.719993	2.821787	0.520091	-1.651367	-0.098877	-0.650146
25512		14.551106	6.621141	2.818659	-1.285192	2.085582	0.659355	-1.626953	-0.076416	-0.695557
25513		12.309570	5.410894	1.865809	-2.372530	1.582707	0.733294	-1.605225	-0.042725	-0.728271
25514		9.671784	3.578881	-0.745653	-3.476741	1.203449	0.708974	-1.585938	-0.006592	-0.752441
25515		7.112434	1.385711	-3.721355	-3.639184	0.685239	0.521380	-1.573486	0.027344	-0.763916
25516		5.340515	-1.023665	-5.969645	-2.568591	0.118819	0.187507	-1.562744	0.042969	-0.768311
25517		3.664183	-2.708153	-7.032136	-0.976967	-0.222493	-0.150510	-1.555908	0.043213	-0.766113
25518		1.596038	-3.408470	-7.447383	0.588194	-0.447938	-0.432397	-1.552979	0.022949	-0.759033
25519		-0.725014	-3.489062	-7.733498	1.898109	-0.825265	-0.541085	-1.552246	-0.001953	-0.741455
25520		-2.864384	-3.129778	-7.990270	2.863285	-1.269319	-0.482741	-1.553711	-0.026611	-0.727783
25521		-4.782981	-2.618571	-7.659988	3.360902	-1.824446	-0.313296	-1.557373	-0.062744	-0.698975
25522		-6.123577	-1.797558	-6.640529	3.111548	-2.529649	-0.123103	-1.572998	-0.073975	-0.647461
25523		-6.956954	-0.785044	-6.329465	2.161562	-3.099977	0.052942	-1.593018	-0.092041	-0.591309
25524		-6.997696	-0.632778	-6.737873	1.133809	-2.979200	0.152105	-1.604736	-0.091797	-0.546387
25525		-5.483691	0.155563	-3.957871	-0.369809	-2.174736	0.392190	-1.618896	-0.078369	-0.506104
25526		-3.451454	2.457464	0.639963	-2.740658	-1.387861	0.878899	-1.631592	-0.040039	-0.487793
25527		-1.494977	7.088508	2.997218	-4.486147	-1.599351	1.105603	-1.648682	-0.008545	-0.443604
25528		2.449105	11.113462	5.023863	-2.859917	-2.628758	0.349586	-1.667236	-0.001709	-0.390381
25529		8.984637	11.935745	9.778310	0.785938	-3.528104	-0.792491	-1.682373	-0.028809	-0.327637
25530		20.060557	7.270905	17.845070	3.796910	-2.125694	-1.731542	-1.690186	-0.071533	-0.305176
25531		28.437448	1.524179	29.045578	3.085519	2.476188	-1.619452	-1.677490	-0.107666	-0.364258
25532		23.137719	-1.769841	24.926781	-2.122523	4.649781	-1.081976	-1.663330	-0.107666	-0.456543
25533		15.056215	-4.026379	21.588811	-4.349405	5.291542	-0.973303	-1.640625	-0.101074	-0.542480
25534		2.270696	-1.610885	17.468297	-6.583809	3.372666	-0.828641	-1.634521	-0.069580	-0.590332
25535		-4.485231	-7.484524	-13.604388	-5.330041	0.956381	-1.296698	-1.636475	-0.076416	-0.605469
25536		0.633700	-10.614491	-44.435164	2.385119	0.980216	-0.464925	-1.638184	-0.094238	-0.609375
25537		0.610996	-13.622492	-47.192310	7.449237	-1.148801	1.050493	-1.659912	-0.123535	-0.561523
25538		4.712229	-11.347781	-12.218453	7.237894	-2.752649	1.163085	-1.675537	-0.139404	-0.531250
25539		14.279613	-1.832893	44.501537	-2.661749	2.725234	-0.563013	-1.666748	-0.123779	-0.574707
25540		12.313893	3.173943	-16.702029	-1.973691	-2.670605	-0.545203	-1.696289	-0.130371	-0.484619
25541		19.912300	12.201225	-29.301490	8.657291	-4.791395	1.194164	-1.720947	-0.155029	-0.394043
25542		23.623941	19.124491	-23.430483	9.573101	-2.279638	1.215649	-1.727539	-0.168701	-0.357178
25543		16.940559	9.307498	1.051524	2.435334	-0.539893	-1.128733	-1.726563	-0.200195	-0.326416
25544		19.608528	8.342556	5.943626	-2.258426	-2.791427	-1.271451	-1.733643	-0.204590	-0.259766
25545		21.280996	11.996030	-5.788789	-1.040183	-4.062013	1.147599	-1.741455	-0.184082	-0.182861
25546		21.862131	12.983484	-8.757295	0.397943	-3.783465	0.825793	-1.744385	-0.177246	-0.112061
25547		21.754929	10.725868	-6.322744	-0.582978	-3.362226	0.058441	-1.737793	-0.179443	-0.051758
25548		18.304902	5.517884	-3.643570	-1.833441	-3.879792	0.118223	-1.731445	-0.177002	0.025879
25549		17.636078	2.149647	-2.492418	-1.601186	-4.769273	0.197716	-1.716064	-0.174561	0.114258
25550		20.609689	0.639306	-2.820349	-0.739280	-5.113493	0.092073	-1.702881	-0.178955	0.200439
25551		25.549242	0.487218	-1.362924	-0.149955	-4.645360	-0.183357	-1.680420	-0.187744	0.274170
25552		27.687601	0.873380	2.479181	-0.620506	-3.383018	-0.520666	-1.662109	-0.201172	0.315674
25553		22.046934	-1.503774	7.682497	-1.310529	-2.150578	-0.712387	-1.643555	-0.216797	0.342041
25554		15.935268	-5.559944	8.378692	-1.385429	-2.432582	-0.589799	-1.625244	-0.232422	0.387939
25555		12.765639	-7.833602	9.461703	-0.656999	-3.413356	-0.302350	-1.595703	-0.243652	0.438232
25556		9.769950	-7.813514	10.405455	0.663084	-3.287223	-0.098268	-1.580566	-0.236816	0.494141
25557		4.704162	-6.182804	9.758380	3.072440	-3.372386	0.131090	-1.552246	-0.214111	0.550049
25558		1.388045	-4.050379	5.815372	5.606900	-4.177536	0.408636	-1.526611	-0.175537	0.624756
25559		2.866129	-0.726737	-0.029440	7.146378	-3.771802	0.689206	-1.506592	-0.112305	0.677246
25560		5.225825	2.459358	0.725856	6.563399	-1.407716	0.808178	-1.499023	-0.062744	0.682617
25561		4.352329	4.587673	9.306560	4.674988	0.026904	0.741858	-1.493652	-0.024414	0.681885
25562		4.356057	6.451601	16.716366	1.832240	-0.204517	0.367919	-1.491699	-0.010742	0.690186
25563		5.029118	9.844808	13.782762	-0.365300	-0.522363	-0.147112	-1.491699	-0.017578	0.694580
25564		4.718271	14.140991	8.940366	-0.050480	-0.104695	-0.895660	-1.486328	-0.035645	0.684326
25565		4.827703	11.311320	8.485187	0.804454	1.282716	-1.245908	-1.503906	-0.049316	0.662842
25566		2.687408	4.658679	8.382703	0.271421	2.768938	-1.277188	-1.532471	-0.069580	0.622070
25567		-1.220166	-1.188610	5.526557	-0.672751	2.797046	-0.985350	-1.552246	-0.083252	0.581299
25568		-2.357759	-5.665000	3.977932	-1.026761	2.036191	-0.277575	-1.567627	-0.085693	0.552979
25569		-0.832356	-7.602700	2.151281	-0.718962	2.118199	0.609546	-1.583740	-0.074463	0.522461
25570		0.856013	-7.368672	1.248537	0.278558	2.478030	0.855287	-1.602051	-0.061035	0.487549
25571		3.100093	-4.489453	1.762928	0.912874	2.729850	0.488716	-1.625000	-0.047607	0.443848
25572		5.262223	-0.602598	2.954847	0.722731	3.170798	-0.034455	-1.654297	-0.041016	0.400146
25573		6.807842	1.632568	4.141042	-0.044961	3.357996	-0.419165	-1.672119	-0.043457	0.348389
25574		9.139854	2.220018	2.946489	-0.723686	3.300656	-0.595963	-1.680420	-0.057129	0.296875
25575		13.677393	2.755420	-0.202524	-0.613879	3.166482	-0.747011	-1.711426	-0.068604	0.249268
25576		22.515132	4.780334	-2.675997	-0.360777	2.874297	-1.379090	-1.730469	-0.097900	0.204590
25577		35.515816	8.915207	-4.416423	-0.715404	2.860990	-2.368159	-1.735596	-0.138672	0.147461
25578		31.676035	9.320384	-2.209831	-1.780359	3.995477	-1.970498	-1.747803	-0.170166	0.076904
25579		23.837820	9.794856	1.450609	-3.849585	3.933026	-0.895321	-1.756104	-0.179443	0.006104
25580		25.154421	7.395479	-0.891907	-5.331981	3.042361	-0.174613	-1.767090	-0.179443	-0.058594
25581		29.074930	1.816812	-2.782727	-4.518053	3.639378	-0.212600	-1.766357	-0.184082	-0.146729
25582		30.699645	-1.401334	-1.058896	-3.826660	4.646322	-0.698096	-1.754395	-0.188721	-0.245361
25583		30.565722	-3.167195	0.786637	-3.370198	5.058137	-0.545258	-1.738525	-0.179932	-0.342041
25584		29.459063	-1.677361	0.954027	-2.577500	5.001314	-0.142540	-1.719971	-0.177734	-0.445068
25585		25.981286	2.217801	-0.060071	-1.741746	4.806204	0.156985	-1.690430	-0.164307	-0.533203
25586		21.181289	6.551255	-0.178207	-0.996356	4.251029	0.315563	-1.658691	-0.153076	-0.610352
25587		17.791037	8.206005	1.199010	-0.634939	3.345249	0.378926	-1.627197	-0.139404	-0.670410
25588		15.430791	8.393336	2.932124	-0.879421	2.594972	0.569687	-1.602539	-0.125977	-0.719727
25589		13.365143	7.357046	1.314623	-2.280736	2.190259	0.634478	-1.580811	-0.092041	-0.765381
25590		10.250789	4.893296	-2.448790	-3.744647	1.753133	0.614566	-1.552734	-0.044922	-0.802734
25591		7.424281	1.205972	-5.663494	-3.994199	0.999486	0.367709	-1.537842	-0.017822	-0.813965
25592		5.535126	-2.534310	-6.826478	-2.901715	0.181264	-0.016144	-1.522705	0.002686	-0.818359
25593		3.535788	-5.435872	-6.839672	-1.126888	-0.249193	-0.251484	-1.513672	0.000244	-0.809570
25594		1.182996	-6.581995	-6.644399	0.650685	-0.315559	-0.403391	-1.506348	-0.015381	-0.819824
25595		-1.267728	-6.688594	-6.663806	2.013104	-0.326603	-0.498593	-1.496338	-0.040039	-0.812744
25596		-3.324613	-6.090633	-6.581688	2.850009	-0.599838	-0.440141	-1.497559	-0.076172	-0.794678
25597		-4.395448	-4.737205	-6.303166	3.067057	-0.987891	-0.247453	-1.497070	-0.098633	-0.774658
25598		-4.814871	-2.362618	-6.126980	2.722509	-1.292109	-0.026345	-1.503174	-0.121094	-0.754883
25599		-5.496239	0.739696	-7.125861	1.907042	-1.334901	0.237448	-1.514404	-0.125732	-0.737793
25600		-8.000092	1.760314	-10.428863	1.427335	-1.256985	0.237448	-1.518799	-0.130127	-0.711914
25601		-10.250795	2.440939	-10.400198	1.219817	-1.331146	0.018319	-1.532227	-0.136963	-0.688232
25602		-8.827198	6.051463	-5.773450	-1.298578	-1.825456	0.398807	-1.546875	-0.112061	-0.648193
25603		-3.698258	9.906986	-3.184786	-2.980865	-2.718803	0.556316	-1.570557	-0.089600	-0.597656
25604		2.610244	10.712715	-0.536550	-1.096094	-4.088736	0.045948	-1.611328	-0.098633	-0.509766
25605		10.441615	8.810728	7.073083	2.431493	-5.318514	-0.573857	-1.628906	-0.127930	-0.418945
25606		21.649339	3.940869	21.900344	5.598108	-3.495733	-1.047374	-1.648193	-0.170654	-0.377441
25607		26.699442	2.866491	37.175509	4.450508	0.795924	-0.538930	-1.643066	-0.184082	-0.394287
25608		23.920285	1.011955	23.805118	-1.499998	2.631166	-0.332455	-1.636230	-0.175293	-0.463135
25609		17.142955	-0.831756	18.934638	-2.630033	4.923877	0.529558	-1.607422	-0.148193	-0.545166
25610		0.157315	-0.530342	8.484285	-3.648967	4.212875	1.033822	-1.592041	-0.118896	-0.610107
25611		-15.143600	-2.070091	-8.980574	-1.537683	1.522458	0.115485	-1.598877	-0.119141	-0.612305
25612		-19.458982	-7.366444	-19.224901	3.703917	-1.777202	-1.315347	-1.624756	-0.166260	-0.560059
25613		-6.444022	-13.678299	-23.801078	7.386401	-3.567515	0.813734	-1.652100	-0.173096	-0.487061
25614		8.756348	-9.974596	-11.735239	2.734189	-2.333079	2.849289	-1.676270	-0.125732	-0.462891
25615		25.284648	-7.561332	35.452672	-7.757913	3.400349	-0.391424	-1.658447	-0.107910	-0.544678
25616		35.362435	-2.088030	-5.040310	-7.448333	-0.943460	-5.341540	-1.685791	-0.175293	-0.476807
25617		26.241272	7.536983	-29.635919	4.260943	-5.247969	-1.445009	-1.703369	-0.204590	-0.394775
25618		21.831873	9.914242	-29.733058	9.554498	-1.727932	1.851824	-1.710449	-0.200195	-0.360596
25619		11.373056	12.347891	-19.971425	10.466256	0.789910	2.597525	-1.710693	-0.195557	-0.352051
25620		0.077461	7.186649	1.738064	2.786592	0.701589	0.664328	-1.713135	-0.197754	-0.334717
25621		-0.837844	0.119563	5.250301	-3.193807	-4.148495	-1.361734	-1.726563	-0.215820	-0.227051
25622		16.038263	5.856789	-7.716891	-1.117418	-6.923818	0.731325	-1.739746	-0.181641	-0.101074
25623		33.166114	14.141176	-9.131662	1.059684	-5.910772	1.328528	-1.742676	-0.174805	0.001953
25624		38.541616	19.171529	-7.583171	-0.871325	-3.970362	-0.792812	-1.726807	-0.186035	0.053955
25625		24.150201	12.927862	-4.235534	-2.836406	-2.558068	0.453040	-1.720703	-0.174561	0.107666
25626		15.553985	7.582162	-1.535809	-2.937078	-3.506407	1.002085	-1.707764	-0.165527	0.172119
25627		16.619041	2.351717	-1.110449	-2.724385	-4.909083	0.813442	-1.692627	-0.156250	0.260254
25628		22.733408	-2.958292	-0.239425	-2.165596	-4.967826	0.578299	-1.667969	-0.160645	0.331787
25629		28.462799	-5.257553	2.839272	-2.000304	-3.514977	0.270343	-1.652100	-0.169434	0.377441
25630		24.076908	-7.484018	7.566226	-2.348134	-1.904559	-0.251647	-1.633545	-0.187500	0.395264
25631		15.280093	-8.954603	10.402636	-1.720277	-2.363846	-0.634698	-1.612793	-0.209961	0.434814
25632		10.191464	-7.343323	12.850422	0.074416	-4.245991	-0.883476	-1.585693	-0.216553	0.508545
25633		8.952638	-7.600154	12.005856	2.853976	-4.631248	-1.178475	-1.550049	-0.218506	0.588867
25634		6.887987	-7.954257	6.366341	5.372883	-3.836312	-1.051959	-1.530518	-0.197998	0.644531
25635		5.366675	-6.407831	-0.272756	6.702227	-3.039928	-0.386196	-1.505371	-0.150635	0.686768
25636		5.061582	-1.481795	-2.252227	6.409594	-1.401850	0.632129	-1.504883	-0.096436	0.700684
25637		2.475686	3.884759	6.443320	5.052994	-0.083499	1.428103	-1.497803	-0.037842	0.699219
25638		1.132224	9.916580	15.502409	2.981815	-0.066716	1.440956	-1.496582	-0.006348	0.698486
25639		1.918881	14.710827	16.590957	0.242142	-0.068049	0.688066	-1.494629	0.002686	0.698486
25640		4.382927	13.998277	12.786873	-0.963061	0.158768	-0.298749	-1.505127	-0.020020	0.694336
25641		5.897474	9.565382	8.925103	-0.723912	1.562859	-0.978078	-1.524658	-0.038086	0.655762
25642		3.559532	6.001615	6.609188	-0.517968	2.696242	-1.385649	-1.539307	-0.065186	0.617676
25643		0.969767	2.909449	4.934555	-0.711876	2.720005	-1.487995	-1.558594	-0.092285	0.581299
25644		0.474238	-0.722713	4.541824	-1.335176	2.456361	-1.091538	-1.584961	-0.110596	0.542725
25645		1.190670	-5.320237	5.164001	-1.958921	2.710204	-0.436558	-1.606934	-0.121826	0.497314
25646		2.798367	-9.840020	2.855044	-2.071265	3.034248	0.042298	-1.628906	-0.133301	0.445801
25647		4.656719	-11.164720	0.896240	-1.412554	3.369013	0.312690	-1.646973	-0.124512	0.395752
25648		5.952491	-8.550522	1.953093	-0.926423	3.771440	0.363800	-1.673828	-0.122314	0.333008
25649		7.485449	-4.201144	2.483980	-0.710041	3.963928	0.319735	-1.696289	-0.115723	0.263672
25650		11.143315	0.436959	0.393523	-0.305779	3.963317	0.316359	-1.723389	-0.106934	0.198486
25651		17.821409	4.045258	-1.790255	-0.020037	3.692959	-0.065564	-1.729736	-0.109375	0.148926
25652		31.624831	8.212327	-2.796790	-0.326332	3.224198	-1.200320	-1.746826	-0.131836	0.086914
25653		37.368216	10.098819	-2.478882	-1.133873	3.871759	-1.865662	-1.756592	-0.163574	0.007813
25654		26.019345	10.344943	1.346502	-2.671004	4.791331	-0.776854	-1.758301	-0.166016	-0.086670
25655		21.993058	9.532211	0.331170	-4.415647	3.748694	0.308034	-1.762939	-0.152588	-0.151611
25656		24.098852	5.593714	-2.096481	-4.000310	3.666951	0.418362	-1.760742	-0.139160	-0.231445
25657		24.923654	1.859818	-0.472741	-2.863251	4.365356	-0.132953	-1.746826	-0.134766	-0.321777
25658		26.038664	-0.094671	1.388913	-2.573958	4.740465	-0.261202	-1.739746	-0.125977	-0.418701
25659		26.962113	-0.607523	0.260904	-2.412328	4.906230	0.101346	-1.708008	-0.114746	-0.519531
25660		26.406494	1.147285	-2.032154	-1.429960	4.945968	0.404847	-1.672119	-0.089844	-0.603516
25661		23.332259	4.386400	-2.698423	-0.388226	4.784842	0.628152	-1.642578	-0.083252	-0.687012
25662		19.720518	6.060292	-1.077141	0.017918	4.102457	0.638772	-1.599609	-0.072021	-0.768311
25663		17.313631	5.968926	0.855594	-0.252994	3.137928	0.574095	-1.568359	-0.053955	-0.817871
25664		14.728968	4.815749	1.082973	-0.999700	2.625843	0.759778	-1.534668	-0.035889	-0.864990
25665		11.833023	2.844263	-0.232321	-1.833597	2.148757	0.787429	-1.503906	-0.004150	-0.899658
25666		8.933521	0.522913	-2.524743	-2.470347	1.527350	0.614189	-1.477783	0.025146	-0.919434
25667		6.012441	-1.873172	-4.241842	-2.555642	0.837926	0.413428	-1.460449	0.054443	-0.932617
25668		3.395976	-3.862147	-4.980603	-1.964783	0.011596	0.133659	-1.454346	0.072510	-0.933105
25669		1.243001	-4.771474	-5.601051	-0.928309	-0.629469	-0.189240	-1.447510	0.067871	-0.922119
25670		-0.942691	-5.111694	-6.386731	0.643151	-0.819552	-0.442825	-1.442383	0.054443	-0.915283
25671		-3.174458	-4.315549	-6.306362	2.252559	-0.875292	-0.521234	-1.443604	0.020752	-0.901611
25672		-5.444711	-2.821241	-6.009573	3.404983	-1.154887	-0.465679	-1.442383	-0.021973	-0.883301
25673		-7.225483	-1.057895	-6.727830	4.174763	-1.677397	-0.302772	-1.459229	-0.064941	-0.848145
25674		-8.832367	-0.073870	-8.857126	4.777834	-2.415050	-0.136490	-1.480713	-0.103271	-0.804443
25675		-10.620000	4.201645	-8.387675	3.555184	-3.260190	0.116175	-1.510010	-0.116699	-0.750732
25676		-10.953005	11.395037	-7.356628	-0.528592	-3.442847	0.849334	-1.533691	-0.091797	-0.693604
25677		-5.290830	11.778561	-4.129773	-2.188403	-3.568377	0.779848	-1.562012	-0.064941	-0.632324
25678		3.297233	6.984935	-2.634303	-2.979392	-4.089965	-0.023588	-1.596924	-0.051270	-0.562256
25679		8.461795	3.688271	0.577175	-2.298237	-4.410922	-0.356444	-1.622314	-0.049072	-0.483154
25680		13.131066	2.970103	8.084981	-0.292748	-3.309185	-0.672302	-1.642090	-0.071533	-0.435547
25681		18.265359	2.396440	19.576545	2.535064	-0.095839	-1.047373	-1.638916	-0.098633	-0.447754
25682		25.390847	1.749233	37.648725	3.242243	3.243275	-0.758313	-1.628906	-0.118896	-0.505371
25683		24.850233	-1.259744	30.270677	-0.962221	4.202221	-0.154760	-1.601318	-0.114502	-0.588867
25684		16.928280	-4.338249	15.482947	-2.570636	4.386252	-0.419284	-1.585693	-0.101074	-0.653564
25685		3.622143	-0.638368	11.848073	-3.499053	2.123272	-0.387745	-1.584229	-0.073975	-0.675537
25686		-9.759049	5.122034	1.448468	-3.245247	-1.181595	-0.329206	-1.598145	-0.064941	-0.643799
25687		-19.072651	8.226626	-14.377291	-2.040514	-2.852963	-0.599029	-1.625488	-0.062744	-0.612061
25688		-13.161128	0.989543	-53.029111	3.061779	-0.106944	-0.285082	-1.633545	-0.096680	-0.609131
25689		-3.766353	-8.338869	-49.265642	10.767907	-0.700733	1.045388	-1.659424	-0.141602	-0.550293
25690		10.175755	-12.599242	37.094385	2.437498	-1.810590	0.554981	-1.653320	-0.112305	-0.606934
25691		49.215312	-17.493615	68.023167	-25.621870	5.982565	-5.193195	-1.651855	-0.085449	-0.624756
25692		31.267685	-7.192906	-56.547382	2.535400	-7.057333	-2.426532	-1.693604	-0.143799	-0.492676
25693		26.675140	9.468837	-38.312278	15.853554	-3.878330	2.014141	-1.708740	-0.175293	-0.434082
25694		19.120332	14.482728	-23.037845	16.673527	1.094615	3.104552	-1.701660	-0.186768	-0.438232
25695		6.143237	16.927554	7.687638	4.487781	2.420867	1.884413	-1.697754	-0.161865	-0.455811
25696		-6.086175	9.496392	9.703471	-6.184157	-2.426698	-0.223265	-1.712158	-0.145996	-0.381104
25697		6.437382	9.345407	-11.403184	-1.574915	-5.768078	0.319133	-1.731445	-0.127930	-0.272217
25698		20.151822	15.695057	-13.751213	1.583456	-5.562410	1.757424	-1.748291	-0.114258	-0.165283
25699		31.138620	19.392017	-7.599672	0.600915	-4.607255	-1.670137	-1.742920	-0.154785	-0.084717
25700		33.961366	14.373090	-3.859704	-2.430313	-3.088481	-1.999494	-1.737793	-0.177246	-0.034668
25701		24.561674	6.168157	-0.697566	-3.027251	-3.096093	0.175580	-1.726807	-0.177002	0.023682
25702		19.845549	0.662547	-0.906987	-2.203144	-4.380275	0.511985	-1.718262	-0.174561	0.101318
25703		21.019586	-3.353479	-0.697290	-1.351654	-4.486093	0.267817	-1.703125	-0.172119	0.176758
25704		23.763688	-4.693392	2.028885	-1.391033	-3.516202	0.210415	-1.687256	-0.178955	0.226563
25705		22.670707	-4.000102	5.879743	-2.412694	-2.402538	0.161021	-1.666748	-0.187744	0.252930
25706		17.134620	-3.790914	9.709839	-2.660886	-2.246311	-0.017744	-1.653076	-0.196777	0.296387
25707		12.409235	-3.828289	12.087691	-1.346209	-3.247677	-0.255680	-1.630615	-0.203369	0.346191
25708		9.762490	-4.356003	13.444918	0.736093	-4.323922	-0.606333	-1.601318	-0.212158	0.417969
25709		8.315544	-6.119453	10.992328	3.209266	-4.991762	-0.870290	-1.581787	-0.202881	0.504150
25710		8.038559	-7.891540	4.901418	5.777350	-4.387565	-0.902271	-1.553223	-0.184814	0.574951
25711		7.467895	-7.501273	-2.269357	6.261305	-2.716652	-0.435884	-1.538574	-0.159912	0.617676
25712		6.141328	-3.820293	-0.564190	5.237763	-1.176817	0.226368	-1.526123	-0.121338	0.623535
25713		3.416656	1.102508	11.809778	4.100836	-0.554407	0.564710	-1.522705	-0.092041	0.633545
25714		2.038931	5.605656	17.072229	2.074654	-0.131320	0.565612	-1.519043	-0.069580	0.628662
25715		-0.082010	10.227969	15.885677	0.610761	0.199900	0.595323	-1.519043	-0.062744	0.622070
25716		1.340457	12.869023	12.342318	0.375283	0.643544	0.124946	-1.537109	-0.060791	0.606689
25717		3.660319	8.390463	8.504731	0.578539	1.920336	-0.343371	-1.545898	-0.065186	0.578857
25718		1.314981	4.692382	5.696804	0.712838	2.755530	-0.537709	-1.567871	-0.074463	0.531250
25719		-0.115892	2.151255	3.785924	0.803512	2.704697	-0.557910	-1.586182	-0.065430	0.494141
25720		0.741234	-0.408309	4.299453	0.052682	2.531700	-0.257447	-1.608154	-0.074707	0.451172
25721		2.305161	-4.329159	5.950382	-1.390407	2.900584	0.105870	-1.623779	-0.074707	0.403564
25722		3.402835	-8.921426	3.904976	-2.051869	3.310887	0.268283	-1.645996	-0.079346	0.345215
25723		3.953168	-10.419038	0.825585	-1.272688	3.518992	0.265119	-1.666260	-0.070557	0.288818
25724		4.077855	-8.476851	0.090900	-0.158782	3.647583	0.052300	-1.686279	-0.070801	0.226074
25725		4.588479	-5.033038	0.804239	0.490656	3.671533	-0.184628	-1.704346	-0.066406	0.171875
25726		6.221652	-1.086233	1.122065	0.800605	3.561760	-0.255959	-1.717529	-0.064209	0.115723
25727		9.919186	2.444026	-0.273905	1.183113	3.336202	-0.186668	-1.730957	-0.064209	0.063965
25728		16.686634	6.087273	-2.065949	1.478857	2.985475	-0.367949	-1.750977	-0.066650	0.018555
25729		31.686167	11.772278	-3.667053	1.174771	2.471692	-1.186974	-1.752197	-0.091553	-0.021729
25730		42.388103	15.464265	-2.815092	0.156352	2.966598	-2.062195	-1.753174	-0.116455	-0.085693
25731		31.052287	14.801928	2.022869	-2.798568	4.362414	-0.992996	-1.752441	-0.125488	-0.171631
25732		23.732742	12.688410	0.082626	-5.614860	3.821673	0.290172	-1.755127	-0.103271	-0.238770
25733		25.146177	6.952771	-2.745371	-5.473201	3.786586	0.139410	-1.745850	-0.094238	-0.329102
25734		27.709263	-0.011338	-1.231001	-4.383559	4.525849	-0.460132	-1.725342	-0.085205	-0.412842
25735		28.749032	-4.869425	1.046539	-3.720271	4.913985	-0.516541	-1.707031	-0.078613	-0.511719
25736		27.940233	-6.172722	1.316070	-2.759380	4.818556	-0.117573	-1.672852	-0.067383	-0.599609
25737		25.069947	-3.890189	1.309115	-1.620059	4.637865	0.106787	-1.639160	-0.053955	-0.683350
25738		19.990475	0.062604	2.135324	-1.019123	4.292902	0.225604	-1.598389	-0.040283	-0.756104
25739		16.083871	2.824741	2.622820	-0.984758	3.359066	0.182506	-1.566650	-0.038086	-0.811768
25740		13.851883	4.045049	2.006138	-1.157119	2.538540	0.297749	-1.532959	-0.020020	-0.856689
25741		11.606851	3.541676	1.117357	-1.256512	1.958943	0.482066	-1.508545	-0.001953	-0.889160
25742		9.137741	2.547503	-0.008681	-1.572749	1.319695	0.619247	-1.482422	0.029541	-0.904541
25743		7.113083	1.417035	-1.753738	-1.872168	0.618790	0.618582	-1.464844	0.047607	-0.915283
25744		5.440433	0.138383	-3.586733	-1.741893	-0.013630	0.503373	-1.454102	0.063477	-0.915527
25745		3.791404	-1.152023	-5.004117	-1.080145	-0.523234	0.211249	-1.445557	0.079346	-0.905029
25746		1.801207	-1.678574	-5.697016	-0.094334	-0.881438	-0.051056	-1.447754	0.070313	-0.894043
25747		-0.233774	-1.806628	-6.376382	0.802770	-0.931366	-0.287606	-1.445068	0.056885	-0.880859
25748		-1.951283	-2.149381	-7.078784	1.602761	-0.956942	-0.566875	-1.448486	0.025146	-0.873779
25749		-3.605163	-2.297274	-7.365124	2.245114	-1.143438	-0.674777	-1.454346	-0.008545	-0.847168
25750		-5.112114	-1.903418	-7.493719	2.729509	-1.510408	-0.532622	-1.460205	-0.037842	-0.829346
25751		-6.833618	-1.831426	-9.088732	3.348096	-1.941368	-0.350650	-1.472900	-0.073730	-0.785645
25752		-9.823840	-4.562012	-13.672219	5.076195	-2.368724	-0.544777	-1.493896	-0.125732	-0.746094
25753		-11.446959	-0.575647	-8.101674	4.556486	-3.101239	-0.351540	-1.522949	-0.150391	-0.683594
25754		-8.908139	6.904542	-4.242463	0.739743	-3.718318	0.357154	-1.550537	-0.141357	-0.621826
25755		-2.300930	11.184822	-1.218381	-0.857613	-3.817234	0.861384	-1.590088	-0.121094	-0.545410
25756		2.656183	11.435934	0.733027	-1.658578	-4.267786	0.413554	-1.613525	-0.107666	-0.470947
25757		8.506514	9.346138	6.116989	-1.203481	-4.733159	-0.524934	-1.638428	-0.118896	-0.391357
25758		17.797698	6.235450	19.772704	0.322328	-3.260212	-1.266480	-1.651367	-0.143555	-0.348145
25759		26.699441	7.561903	36.080330	1.022641	0.250845	-1.314360	-1.650879	-0.163818	-0.351807
25760		29.886096	6.702979	27.116254	-3.675330	1.180575	-0.778869	-1.657471	-0.161621	-0.390625
25761		24.869180	0.795514	21.229743	-5.536863	3.141586	-0.523714	-1.644043	-0.145996	-0.461914
25762		10.603872	-1.260003	9.463385	-4.036355	3.415628	-0.162325	-1.626221	-0.130127	-0.515625
25763		-2.190913	1.069827	-4.703887	-3.096844	2.919025	-0.075439	-1.619629	-0.116699	-0.563232
25764		-14.303606	-1.000213	-18.226916	-1.700960	0.702187	-0.891070	-1.630371	-0.130371	-0.554443
25765		-13.336297	-11.607266	-28.342303	5.639413	-1.593415	-1.013833	-1.644775	-0.182129	-0.516846
25766		1.165804	-21.097540	-33.776784	9.028175	-0.368792	0.726095	-1.657471	-0.211426	-0.488525
25767		7.414295	-25.067720	6.132290	-0.510497	-0.730559	1.230992	-1.661133	-0.164063	-0.509033
25768		21.259665	-10.514178	51.949089	-14.593012	3.203407	-1.510200	-1.666260	-0.148438	-0.513672
25769		31.573920	13.103306	-40.537393	7.056962	-7.736277	-1.031287	-1.713135	-0.188721	-0.347900
25770		37.081028	15.023615	-37.438980	12.460548	-5.427854	0.593712	-1.719482	-0.218018	-0.274170
25771		25.525555	12.398438	-19.539738	9.624037	1.018602	0.415000	-1.716553	-0.233887	-0.291016
25772		11.296403	8.367720	5.954709	0.368258	2.808929	-0.196726	-1.703125	-0.227051	-0.329590
25773		-0.391405	3.062654	5.889746	-5.225996	-1.749240	-0.297048	-1.712891	-0.211182	-0.259277
25774		5.622141	11.981926	-10.200338	-1.281278	-5.464493	2.170315	-1.728516	-0.166016	-0.155029
25775		15.342335	18.427149	-11.070603	1.481719	-5.193733	2.607800	-1.732422	-0.134277	-0.059082
25776		26.092289	16.938192	-5.384107	0.108564	-4.975933	-0.261797	-1.729980	-0.152344	0.027344
25777		32.417528	12.881180	-3.318357	-2.382056	-4.346504	-1.256669	-1.716064	-0.179199	0.103516
25778		25.239515	7.450878	0.627081	-1.861003	-3.703319	-0.058135	-1.704834	-0.183594	0.172607
25779		21.269044	5.307602	2.398226	-1.999844	-4.311571	-0.056330	-1.682617	-0.187744	0.244141
25780		23.951860	2.732462	0.681644	-2.478041	-4.492847	-0.338118	-1.666748	-0.201172	0.313477
25781		24.856988	-2.164106	2.372588	-3.133016	-3.209900	-0.494267	-1.645508	-0.225830	0.342285
25782		19.940686	-8.687475	5.372136	-3.406204	-2.108633	-0.443960	-1.622314	-0.250488	0.366943
25783		14.378628	-11.890392	8.357475	-2.139999	-2.958585	-0.357389	-1.601807	-0.261719	0.416992
25784		10.376136	-12.053217	11.108603	0.017823	-4.061413	-0.449068	-1.572754	-0.268311	0.482178
25785		6.984886	-10.079309	10.383386	3.027885	-4.367400	-0.458052	-1.550781	-0.254639	0.557373
25786		5.286716	-7.817503	6.203079	5.973588	-4.408505	-0.323773	-1.525391	-0.216064	0.636475
25787		5.941935	-5.631527	0.015663	6.885478	-3.194933	0.003337	-1.502197	-0.175293	0.680908
25788		6.015881	-2.692078	-0.035031	5.511674	-1.145487	0.577982	-1.497070	-0.127930	0.688477
25789		3.774083	0.379991	8.326465	3.995922	-0.203115	0.870280	-1.495850	-0.092041	0.694092
25790		3.053294	3.892094	14.420811	2.206027	-0.284319	0.729872	-1.494629	-0.064941	0.695801
25791		2.738318	8.116101	13.363612	0.785007	-0.166952	0.519204	-1.485840	-0.053711	0.697754
25792		3.504023	12.376860	10.779071	1.048116	0.299959	0.120000	-1.497314	-0.051514	0.686768
25793		4.119310	11.955619	8.907036	1.658385	1.575619	-0.311019	-1.510742	-0.044678	0.656250
25794		2.063533	8.940399	8.432351	1.369624	2.645951	-0.669203	-1.528564	-0.049316	0.617432
25795		-0.644212	5.731981	6.148187	0.562099	2.978848	-0.861212	-1.552734	-0.060791	0.572021
25796		-1.817666	2.436971	4.592495	-0.465590	2.471997	-0.580303	-1.577393	-0.067627	0.539551
25797		-0.063189	-1.902582	4.217867	-1.545272	2.366111	-0.078189	-1.592773	-0.074463	0.502930
25798		2.492489	-6.456916	3.615600	-1.993569	2.935826	0.159655	-1.619385	-0.079102	0.453125
25799		4.605246	-8.283553	1.260636	-1.562343	3.270573	0.097163	-1.637207	-0.081543	0.407715
25800		5.915721	-7.152563	0.219716	-0.829517	3.457440	-0.102967	-1.664063	-0.077148	0.349121
25801		6.412987	-5.112071	1.713192	-0.438140	3.540199	-0.310573	-1.679443	-0.086426	0.293213
25802		7.157887	-2.895119	2.561382	-0.282193	3.443344	-0.378900	-1.701660	-0.086426	0.247803
25803		10.278713	0.059565	0.321222	0.281956	3.338958	-0.289792	-1.721680	-0.091064	0.187256
25804		17.261967	3.243235	-2.709068	1.094331	3.061168	-0.509586	-1.737061	-0.097900	0.148438
25805		35.696954	8.968917	-4.345123	1.039440	2.416939	-1.704673	-1.742432	-0.134033	0.110596
25806		43.058663	11.561516	-3.505007	0.000143	3.310965	-2.238313	-1.750244	-0.159180	0.033691
25807		28.222757	13.337777	1.796629	-2.722886	4.613420	-0.724806	-1.758545	-0.166016	-0.043701
25808		23.633867	14.626173	-0.695045	-5.562805	3.634529	0.213819	-1.762939	-0.156982	-0.117188
25809		25.867652	8.458628	-3.551319	-5.216372	3.655265	0.058802	-1.762695	-0.152588	-0.201172
25810		27.134518	0.855811	-1.635186	-4.212769	4.432685	-0.503403	-1.753174	-0.150635	-0.289307
25811		27.555851	-3.862318	0.688459	-3.451719	4.754040	-0.365746	-1.732666	-0.143799	-0.383789
25812		26.502151	-4.828233	1.358549	-2.842227	4.700338	0.004308	-1.709961	-0.128174	-0.480469
25813		24.507649	-2.343022	0.347746	-2.104824	4.557927	0.322175	-1.685059	-0.119141	-0.566406
25814		21.191409	1.099603	-0.385013	-1.224820	4.272212	0.497422	-1.646729	-0.098877	-0.652344
25815		18.421623	3.761520	0.232257	-0.625354	3.615639	0.527260	-1.610596	-0.087646	-0.705811
25816		16.578318	4.701378	0.372218	-0.614258	2.962429	0.555933	-1.586182	-0.071777	-0.761719
25817		14.386719	4.570333	-0.187235	-1.083835	2.506558	0.665704	-1.556885	-0.056152	-0.806885
25818		12.042919	3.903875	-1.879066	-1.701129	1.977846	0.682376	-1.528076	-0.033447	-0.845703
25819		9.566994	2.199147	-3.170200	-1.927415	1.381918	0.562375	-1.506348	-0.001953	-0.863281
25820		7.099989	-0.079136	-4.304565	-1.975936	0.871495	0.386139	-1.486816	0.020508	-0.878418
25821		4.543443	-1.762935	-5.198113	-1.611872	0.334289	0.101769	-1.473389	0.027344	-0.878418
25822		1.582673	-2.827216	-5.787973	-0.838976	-0.159677	-0.199419	-1.464355	0.025146	-0.880371
25823		-1.107555	-3.058391	-6.151333	0.168633	-0.657714	-0.404757	-1.455078	0.018555	-0.864990
25824		-3.370611	-3.195336	-6.719910	1.202326	-1.120722	-0.520306	-1.458984	-0.004150	-0.849609
25825		-5.130387	-3.081825	-7.248194	2.151739	-1.490338	-0.582626	-1.471680	-0.035645	-0.821045
25826		-6.625649	-2.504332	-7.297646	2.864175	-1.923776	-0.479121	-1.484375	-0.067139	-0.792480
25827		-7.683216	-2.056590	-7.765132	3.340643	-2.351291	-0.265482	-1.494873	-0.100830	-0.748779
25828		-9.078723	-3.913472	-10.593606	4.248129	-2.596416	-0.109698	-1.514160	-0.139160	-0.700928
25829		-10.082886	-4.598259	-9.818371	4.916766	-2.819043	0.005074	-1.533936	-0.161621	-0.648926
25830		-8.593788	1.543188	-3.478676	1.844047	-2.694157	0.470486	-1.556885	-0.157227	-0.602295
25831		-3.543845	7.066621	-0.561297	-1.329450	-2.408795	1.123140	-1.578613	-0.121094	-0.560303
25832		0.393767	11.174541	-1.334318	-3.319763	-2.677174	1.245827	-1.600342	-0.087402	-0.510010
25833		5.627518	11.886563	0.857370	-2.051114	-3.190652	0.106571	-1.621094	-0.084961	-0.452148
25834		13.256829	10.179445	10.659494	0.593600	-2.764238	-0.868059	-1.638672	-0.112061	-0.408691
25835		23.480020	5.857568	25.332688	2.902068	0.242113	-1.578020	-1.632568	-0.152588	-0.433594
25836		29.630898	7.327373	42.551992	1.596060	3.220022	-1.184046	-1.618164	-0.168457	-0.480225
25837		26.460775	2.420929	29.207801	-3.902398	3.520066	-1.024973	-1.600098	-0.159424	-0.557617
25838		13.615099	0.331862	23.125266	-5.422472	3.823905	-1.006350	-1.586914	-0.141602	-0.613770
25839		-4.104248	1.238514	2.058231	-5.313545	1.000251	-0.666980	-1.589355	-0.130371	-0.616211
25840		-16.608940	-2.073547	-28.274702	-0.498508	-1.999729	-1.264782	-1.609131	-0.157227	-0.577148
25841		-16.074294	-11.979894	-52.354185	7.489646	-0.614196	-1.085842	-1.620850	-0.215820	-0.556641
25842		-6.117537	-17.531486	-37.811364	9.134405	-2.118425	1.569282	-1.650635	-0.213623	-0.483887
25843		-0.122578	-9.908358	24.181726	-1.666324	-1.569207	3.615322	-1.650635	-0.139404	-0.537354
25844		19.991162	7.941764	61.605209	-15.069469	3.908908	-4.009124	-1.667725	-0.173096	-0.500244
25845		45.596260	6.296845	-52.974410	3.907963	-10.160326	-3.716817	-1.709473	-0.242920	-0.312256
25846		55.939101	10.734486	-37.302869	13.078167	-4.264199	1.090714	-1.709229	-0.253906	-0.270996
25847		25.853148	6.043430	-10.918395	8.364399	4.072584	1.208939	-1.695557	-0.249512	-0.339844
25848		4.839683	1.452495	13.390711	-3.005268	3.421428	0.558461	-1.687012	-0.227051	-0.365967
25849		-4.322576	-1.668839	-1.487522	-4.944521	-2.955507	0.155125	-1.704102	-0.204590	-0.291504
25850		4.449361	7.927926	-13.285744	0.093278	-4.849340	1.729206	-1.716797	-0.175049	-0.195557
25851		12.601247	14.902763	-11.287705	2.346425	-4.834082	1.833918	-1.718018	-0.154541	-0.099365
25852		23.792137	16.226987	-3.814174	1.352608	-5.100314	-0.390813	-1.717773	-0.174805	-0.008545
25853		34.529190	14.308622	-3.298706	-0.896595	-4.627085	-1.877789	-1.708008	-0.208496	0.067871
25854		30.898291	7.706211	-0.619803	-0.571722	-3.617275	-0.628407	-1.692383	-0.212891	0.132568
25855		23.966760	3.871209	3.055366	-0.242314	-3.747216	0.065231	-1.674316	-0.221680	0.195557
25856		22.076449	2.662555	2.545765	-1.046664	-3.743650	-0.249529	-1.656494	-0.228271	0.253906
25857		21.306575	0.161060	4.479374	-2.091792	-2.821544	-0.402178	-1.640137	-0.246338	0.284912
25858		18.075539	-4.571206	8.748629	-3.011427	-2.249141	-0.448119	-1.624023	-0.261963	0.313477
25859		14.423291	-8.091508	11.268761	-2.085338	-2.786919	-0.261573	-1.607910	-0.275391	0.356934
25860		11.519642	-8.767035	12.859014	0.246979	-3.681851	-0.277197	-1.576416	-0.277344	0.422119
25861		9.511121	-8.445774	11.072301	2.475235	-3.755112	-0.377980	-1.561279	-0.270508	0.475830
25862		7.698397	-8.194294	6.255463	4.073866	-2.874578	-0.293957	-1.546143	-0.252441	0.520752
25863		5.070974	-6.539672	1.398087	4.889387	-1.999816	0.140457	-1.529297	-0.222900	0.556885
25864		3.647024	-2.737309	-0.971626	5.004162	-1.448938	0.596179	-1.521729	-0.180176	0.583984
25865		2.861302	2.152538	4.168392	4.526036	-0.963904	0.885899	-1.514160	-0.139404	0.591797
25866		3.067918	6.017791	9.987789	3.943731	-0.477953	0.768689	-1.517578	-0.103516	0.605957
25867		4.024154	9.757051	11.857333	3.504990	-0.017006	0.586440	-1.511719	-0.080811	0.605469
25868		3.597066	11.733671	11.601439	2.100623	0.455385	0.263034	-1.514160	-0.069580	0.583740
25869		2.880725	10.376454	11.066850	0.134289	0.912146	-0.301628	-1.529541	-0.081055	0.572998
25870		1.678867	7.427884	7.690501	-0.834426	1.781411	-0.642397	-1.540283	-0.090088	0.536377
25871		-0.116427	3.904597	4.089212	-0.850079	2.218536	-0.781770	-1.552979	-0.112793	0.506592
25872		-1.155399	-0.206631	2.040891	-0.503051	2.208403	-0.629084	-1.568604	-0.117188	0.472168
25873		-0.537196	-3.971949	2.150209	-0.310919	2.261804	-0.232899	-1.586182	-0.124268	0.441895
25874		0.981990	-6.295796	1.689269	-0.481791	2.379058	0.148481	-1.599609	-0.122070	0.409424
25875		2.697267	-6.993287	0.625595	-0.739614	2.450033	0.281121	-1.613525	-0.108643	0.370117
25876		4.242181	-6.307889	1.175357	-0.886448	2.663980	0.219451	-1.631104	-0.113281	0.324707
25877		5.607946	-4.717533	2.750289	-1.072480	2.953506	0.120431	-1.646973	-0.108887	0.272705
25878		6.632196	-3.097203	4.578785	-1.151243	3.034810	0.047365	-1.664551	-0.111084	0.229492
25879		8.370407	-1.221833	4.456995	-0.935992	2.976736	0.035297	-1.675781	-0.106689	0.186279
25880		12.405944	1.428632	2.023717	-0.050459	2.932729	0.050487	-1.693848	-0.100098	0.145020
25881		20.702110	4.949734	-0.576047	0.749040	2.604742	-0.411096	-1.707031	-0.106934	0.101807
25882		37.747970	10.887461	-2.590539	0.671137	2.197917	-1.669412	-1.714844	-0.140869	0.063965
25883		39.616086	12.617980	-1.722757	-0.178983	3.390947	-1.884567	-1.713623	-0.165771	-0.010742
25884		27.025717	13.715028	1.586716	-2.358600	4.296481	-0.378130	-1.717773	-0.159180	-0.086182
25885		22.241988	11.754551	-0.653294	-4.015686	3.737001	0.439300	-1.719971	-0.150146	-0.161865
25886		23.488770	6.017044	-1.910058	-4.422184	3.846203	0.008627	-1.715332	-0.145752	-0.241455
25887		23.786954	0.163471	-1.056127	-4.375882	4.353293	-0.415674	-1.701416	-0.136963	-0.323242
25888		23.780108	-2.858584	0.243588	-3.958421	4.561489	-0.354811	-1.683105	-0.130371	-0.419922
25889		23.935783	-2.117246	0.741956	-3.204677	4.482339	0.003373	-1.660400	-0.119141	-0.497070
25890		22.582183	0.455520	1.098519	-2.177974	4.351293	0.303260	-1.628906	-0.105469	-0.580811
25891		20.771838	2.825921	1.673904	-1.214535	3.951403	0.409851	-1.599609	-0.089844	-0.647461
25892		18.529094	3.653619	2.276666	-0.846995	3.373509	0.508779	-1.570557	-0.071777	-0.703369
25893		16.321669	3.212838	1.470009	-1.133509	2.842054	0.664842	-1.548096	-0.058350	-0.752930
25894		13.924481	2.611757	-0.416337	-1.644471	2.279345	0.700659	-1.517090	-0.033447	-0.789551
25895		11.410673	1.585099	-2.515530	-1.935011	1.611543	0.679244	-1.499756	-0.004150	-0.815674
25896		9.372991	0.367921	-4.242417	-1.960350	0.961716	0.543054	-1.477783	0.016113	-0.839600
25897		7.419437	-1.131980	-5.785095	-1.714596	0.510726	0.313926	-1.467041	0.031982	-0.839844
25898		4.925905	-2.723777	-6.658494	-1.109787	0.096062	0.064753	-1.455811	0.034180	-0.837402
25899		2.193657	-4.063435	-6.701254	-0.369942	-0.423226	-0.200844	-1.446777	0.031982	-0.833008
25900		-0.606823	-4.637496	-6.868649	0.556435	-0.909670	-0.413370	-1.446289	0.018555	-0.813232
25901		-3.432522	-4.762016	-7.090095	1.757522	-1.295687	-0.492025	-1.452393	-0.008545	-0.795654
25902		-6.163257	-4.613059	-7.303337	3.029937	-1.689298	-0.454718	-1.464844	-0.044434	-0.766846
25903		-8.180215	-3.857514	-8.497224	4.301401	-2.180159	-0.249294	-1.475342	-0.078369	-0.729736
25904		-9.785163	-3.887731	-10.750211	5.627200	-2.719427	-0.003137	-1.494385	-0.123291	-0.675049
25905		-10.378530	-4.085034	-9.884682	6.684934	-2.935163	0.096973	-1.511475	-0.161621	-0.620605
25906		-8.060665	2.296737	-0.915324	3.842253	-2.945983	1.034155	-1.539063	-0.154785	-0.569580
25907		-5.274360	9.249573	2.496185	-0.429920	-2.660717	2.273439	-1.552490	-0.103027	-0.525879
25908		-1.815618	12.859505	2.065577	-2.461340	-2.776185	1.873142	-1.571777	-0.071289	-0.468994
25909		4.951621	11.703231	2.799507	-1.992464	-3.667481	-0.022166	-1.601563	-0.071289	-0.402832
25910		14.156998	7.721271	6.715975	-0.439299	-3.838683	-1.220273	-1.612549	-0.091553	-0.344482
25911		24.845368	3.544619	14.982761	1.814069	-1.392210	-2.177180	-1.617676	-0.136719	-0.343262
25912		30.972792	5.274750	29.940351	2.009716	3.161511	-2.325762	-1.602539	-0.175049	-0.413086
25913		23.137436	6.456335	33.100300	-0.032355	5.783940	-2.133745	-1.569336	-0.213379	-0.500000
25914		5.484044	7.711906	18.243798	0.271709	2.762428	-1.296639	-1.566406	-0.229248	-0.512451
25915		-8.843336	9.252204	-6.450589	1.455315	-1.971532	-0.854361	-1.586182	-0.251709	-0.469238
25916		-13.300154	5.780030	-33.073612	1.667679	-2.456931	-0.890649	-1.599365	-0.269775	-0.432373
25917		-11.528023	-5.826419	-47.508127	2.451059	-1.796174	0.955192	-1.625244	-0.249512	-0.385986
25918		-3.604920	-13.059835	-21.129287	0.153143	-2.478908	2.466447	-1.635986	-0.204346	-0.348389
25919		21.314479	-16.077048	50.986152	-8.306636	2.633224	0.125519	-1.618164	-0.177490	-0.465088
25920		35.180187	1.143805	28.917879	-13.407227	3.499546	-3.748157	-1.626465	-0.197754	-0.443115
25921		30.207435	-6.240097	-38.420080	-0.184644	-6.582242	-1.172013	-1.654297	-0.199951	-0.333740
25922		25.136388	-4.648473	-25.995992	6.915066	-3.388410	1.706735	-1.665527	-0.204346	-0.280029
25923		15.213695	-3.713178	-15.621075	9.247921	0.627939	1.646909	-1.659180	-0.197510	-0.282227
25924		4.482670	1.361169	0.336117	5.202602	0.348154	1.288567	-1.666260	-0.188477	-0.252441
25925		-0.164970	5.898340	1.181826	0.324299	-3.973279	0.989876	-1.681152	-0.161377	-0.158691
25926		9.681234	13.584886	-12.264479	1.779689	-6.611541	1.980025	-1.685059	-0.131836	-0.039063
25927		21.523840	25.331607	-13.071086	2.651133	-5.774535	1.313743	-1.687988	-0.127197	0.057617
25928		34.068852	30.911081	-7.526852	-0.375979	-4.415992	-2.662814	-1.668701	-0.176758	0.132080
25929		33.565889	18.996474	0.071333	-1.942688	-2.958862	-1.549843	-1.656982	-0.196777	0.182373
25930		25.320402	8.426757	1.409829	-3.308771	-3.088003	-0.330037	-1.640869	-0.217041	0.230225
25931		22.074316	-1.823372	-1.568819	-4.398453	-3.357082	-0.457418	-1.624268	-0.243896	0.270020
25932		21.408842	-12.157991	0.709294	-4.645672	-2.825909	-0.283863	-1.612549	-0.259521	0.300537
25933		19.410286	-17.672962	5.491988	-3.779165	-2.392548	-0.145677	-1.594238	-0.270752	0.331299
25934		16.360601	-17.422412	10.149155	-2.310120	-2.733610	0.179096	-1.578613	-0.275146	0.374756
25935		12.520334	-13.127742	11.971725	0.189240	-3.760436	0.022013	-1.556641	-0.268311	0.430664
25936		10.356116	-8.715505	10.347773	3.412768	-3.988566	-0.297161	-1.532471	-0.259033	0.501953
25937		8.490270	-6.746690	5.343572	5.494377	-3.296977	-0.279005	-1.506592	-0.229736	0.553223
25938		6.851499	-4.986365	-0.450820	6.510228	-2.335443	0.009901	-1.496582	-0.191162	0.597656
25939		5.577192	-0.509954	-3.717968	6.957803	-1.103244	0.657331	-1.489746	-0.130371	0.611328
25940		2.923133	5.155741	2.255288	6.375452	-0.127986	1.017326	-1.489014	-0.083008	0.612305
25941		2.176143	9.509212	10.891095	4.851983	-0.123760	0.832669	-1.483643	-0.040283	0.613525
25942		3.157531	13.051163	11.960342	3.156662	-0.025401	0.717357	-1.488770	-0.020020	0.610840
25943		3.775093	14.733206	12.557588	1.840499	0.271548	0.255436	-1.489258	-0.004150	0.599609
25944		3.799356	12.360716	12.258671	0.616897	1.117839	-0.412084	-1.504639	-0.015625	0.580322
25945		1.600642	9.500428	9.030527	-0.360438	1.945749	-0.772128	-1.515137	-0.031494	0.546143
25946		-0.482702	7.131386	5.351046	-0.583844	2.159336	-0.841098	-1.535156	-0.042725	0.528809
25947		-1.004888	4.239074	3.100591	-0.436541	2.177044	-0.758785	-1.548096	-0.054199	0.488037
25948		0.122375	1.121749	2.977875	-0.575344	2.296306	-0.604438	-1.558594	-0.070068	0.449707
25949		1.896797	-1.965974	3.265861	-1.235706	2.513141	-0.432293	-1.580811	-0.076904	0.419434
25950		3.760999	-4.979353	2.759524	-1.956916	2.723255	-0.326661	-1.603027	-0.085938	0.376221
25951		5.537446	-6.681674	2.004715	-2.063162	3.015010	-0.205348	-1.622803	-0.095215	0.324463
25952		7.598171	-5.913010	0.850795	-1.613963	3.253818	-0.048812	-1.633789	-0.097412	0.274902
25953		11.177569	-3.385300	-0.207441	-0.972988	3.182442	-0.047371	-1.651611	-0.095459	0.231445
25954		17.318114	-0.269508	-0.893558	-0.436498	2.921755	-0.480828	-1.666748	-0.106689	0.188477
25955		28.359280	3.813302	-1.514747	-0.266294	2.817559	-1.466464	-1.679199	-0.136230	0.139648
25956		32.615128	6.927537	-0.975525	-0.691796	3.457653	-2.167555	-1.682373	-0.167725	0.069336
25957		22.693371	7.338989	2.533178	-1.927388	4.313888	-1.183093	-1.685791	-0.188232	-0.001221
25958		19.756514	7.933401	3.315239	-3.930484	3.462177	-0.108352	-1.689941	-0.183838	-0.068115
25959		22.903733	4.809920	-0.664372	-4.236617	3.318378	0.185784	-1.689941	-0.177246	-0.136963
25960		25.505753	1.999294	-0.920556	-3.021338	4.161796	-0.302736	-1.689453	-0.179443	-0.222900
25961		27.371403	0.874093	0.846420	-2.467362	4.489049	-0.566463	-1.675293	-0.179688	-0.311035
25962		28.370341	0.682380	1.156045	-2.363496	4.364331	-0.265683	-1.656982	-0.172852	-0.396973
25963		27.630416	3.231632	0.300281	-2.010879	4.263725	0.016029	-1.636475	-0.168457	-0.471924
25964		23.905440	6.174818	-0.051990	-1.353636	4.152498	0.069067	-1.613770	-0.157227	-0.547119
25965		19.500338	6.668709	0.789959	-0.781941	3.690141	0.282100	-1.590820	-0.155029	-0.607178
25966		17.682665	5.593890	1.397862	-0.816287	2.968892	0.332844	-1.561523	-0.145996	-0.660645
25967		16.883613	4.106774	0.836895	-1.285218	2.534989	0.375422	-1.534912	-0.125732	-0.710205
25968		15.506202	3.091661	-0.920292	-2.178528	2.299313	0.360164	-1.515137	-0.100830	-0.747070
25969		12.810765	1.956836	-3.013052	-2.921272	1.938522	0.308427	-1.488770	-0.073975	-0.788086
25970		9.425437	0.032308	-4.589952	-3.087152	1.419530	0.186700	-1.468994	-0.053467	-0.805420
25971		5.900500	-2.530274	-5.456999	-2.670113	0.736407	0.012379	-1.451172	-0.037842	-0.820557
25972		2.515691	-4.833158	-5.822034	-1.740474	-0.029581	-0.166258	-1.444824	-0.026367	-0.814453
25973		-0.483113	-6.223519	-6.648874	-0.507304	-0.649064	-0.350098	-1.444580	-0.037842	-0.805420
25974		-2.846990	-6.888105	-7.627682	1.071152	-1.045597	-0.409404	-1.443848	-0.060303	-0.794189
25975		-5.181442	-6.544268	-7.678694	2.554307	-1.385861	-0.292819	-1.447754	-0.084961	-0.763428
25976		-6.958507	-5.316499	-7.117427	3.526629	-1.808300	-0.162455	-1.462891	-0.109863	-0.730957
25977		-8.042941	-3.409971	-7.102273	3.900246	-2.232185	-0.118640	-1.471191	-0.141357	-0.687256
25978		-9.263288	-2.865013	-9.236015	4.207885	-2.448628	-0.143674	-1.490479	-0.179688	-0.643555
25979		-10.442063	-2.379028	-9.497817	4.418732	-2.144708	-0.258236	-1.503662	-0.199951	-0.604736
25980		-9.898840	4.847330	-3.830692	1.355531	-1.427222	0.460581	-1.513184	-0.184082	-0.587891
25981		-7.919967	10.777975	-3.018626	-2.766108	-1.291894	1.501305	-1.528320	-0.143555	-0.556885
25982		-1.707563	14.016455	-2.116223	-2.979087	-2.921448	0.405215	-1.558350	-0.134521	-0.503906
25983		7.942585	12.903397	5.811780	-0.363524	-4.686953	-0.975006	-1.580566	-0.156982	-0.419678
25984		21.187944	9.085693	17.948321	1.869393	-3.684172	-1.920372	-1.588623	-0.195313	-0.373779
25985		34.351912	9.680247	36.572299	2.231605	1.075462	-1.943997	-1.575928	-0.229004	-0.402832
25986		31.110353	7.373761	35.451089	-1.151443	3.636406	-1.140462	-1.559570	-0.233643	-0.479980
25987		19.533553	0.669471	25.123385	-4.116975	5.004320	-1.052399	-1.534424	-0.233643	-0.565674
25988		3.246413	1.090556	10.592339	-3.653848	2.340001	-0.304873	-1.539551	-0.206787	-0.587891
25989		-9.757521	3.402745	-6.564185	-2.257653	-0.907887	0.138814	-1.544434	-0.197754	-0.566650
25990		-17.610033	-2.936037	-34.763173	0.636052	-1.965753	-0.826711	-1.561523	-0.233643	-0.544434
25991		-12.095295	-14.711132	-58.517837	7.556592	-0.716565	-0.301403	-1.576416	-0.271973	-0.500732
25992		-2.966508	-15.286932	-26.591463	8.963794	-1.799729	3.333807	-1.600586	-0.233643	-0.450439
25993		14.545396	-11.210089	67.743397	-8.259108	2.536108	2.377666	-1.580078	-0.145996	-0.581299
25994		31.374081	-12.817642	30.184498	-21.732396	3.126967	-5.768074	-1.595459	-0.166260	-0.540283
25995		34.100324	0.919336	-52.669171	5.675594	-8.320182	-2.685217	-1.637207	-0.224609	-0.399658
25996		32.739412	14.111157	-38.140490	15.993653	-2.545334	1.782931	-1.634277	-0.249512	-0.366699
25997		20.944689	14.401086	-15.411209	13.935379	3.103669	2.229640	-1.624756	-0.262939	-0.389893
25998		6.034777	9.979812	19.613411	-0.046689	2.538274	0.612345	-1.618408	-0.242676	-0.405273
25999		-3.734262	-1.881065	4.917979	-6.286201	-3.084968	-0.818629	-1.632813	-0.233643	-0.334717
26000		6.984934	2.061717	-14.591847	-0.002583	-4.565218	1.486337	-1.647949	-0.197510	-0.256348
26001		15.425601	9.429130	-13.214589	3.618838	-4.182479	2.906509	-1.663086	-0.163574	-0.171387
26002		26.079243	15.172376	-4.540598	3.371423	-4.408222	0.372597	-1.665527	-0.172607	-0.093750
26003		33.755453	16.881212	-1.480423	-0.394777	-3.949532	-1.593626	-1.655762	-0.199463	-0.030518
26004		26.033469	10.717433	0.640839	-1.238339	-3.070954	-0.150578	-1.647217	-0.192627	0.029541
26005		19.258818	6.791231	0.540263	-0.931391	-3.770761	0.452725	-1.640869	-0.192383	0.094238
26006		19.534175	3.330473	0.103783	-0.813324	-4.120985	0.305913	-1.627686	-0.189941	0.156738
26007		22.207588	1.176740	3.111621	-1.208202	-3.424472	0.257136	-1.616699	-0.192139	0.206543
26008		21.574102	0.510742	6.222627	-1.946749	-2.559973	0.221670	-1.605469	-0.196533	0.239014
26009		17.750258	-1.638346	9.440009	-2.096692	-2.415368	0.223046	-1.585205	-0.198730	0.273682
26010		14.821922	-5.353060	11.345382	-1.476274	-2.814457	-0.001152	-1.573730	-0.209961	0.317139
26011		12.456027	-8.145773	12.760647	-0.314399	-3.346344	-0.222144	-1.551270	-0.212158	0.367188
26012		9.880001	-10.254631	11.658664	1.027481	-3.508386	-0.291882	-1.533447	-0.214111	0.421143
26013		7.220346	-9.982213	7.435179	2.696469	-3.213225	-0.180384	-1.518555	-0.196045	0.472656
26014		5.534937	-6.320615	1.446982	4.739092	-2.222065	0.193430	-1.501709	-0.159912	0.500000
26015		3.568194	-0.207798	-2.557965	5.958937	-1.502856	0.696952	-1.496338	-0.121582	0.531494
26016		1.785751	6.230885	-0.056282	5.880870	-1.537467	0.893840	-1.484375	-0.076416	0.547607
26017		1.746313	10.741884	8.056193	4.639889	-1.094131	0.663345	-1.485596	-0.044922	0.562012
26018		1.919039	14.166074	13.657337	2.960151	-0.231432	0.410599	-1.479248	-0.026855	0.565918
26019		1.953666	15.666017	14.885840	0.710511	0.081150	0.102842	-1.483643	-0.031250	0.563965
26020		3.145713	12.515940	11.876361	-1.640044	0.304811	-0.403672	-1.487549	-0.049316	0.551270
26021		3.763975	7.384577	8.094213	-2.539458	1.109230	-0.757719	-1.500244	-0.074219	0.532471
26022		2.826379	2.606056	4.975794	-2.361240	1.726426	-0.732727	-1.508301	-0.094482	0.502686
26023		1.944159	-1.656280	3.244952	-1.683793	2.051735	-0.577072	-1.521240	-0.110352	0.468262
26024		1.860876	-5.737845	3.587853	-1.363260	2.270168	-0.401344	-1.538818	-0.124023	0.436279
26025		2.220937	-9.606104	4.068280	-1.580245	2.524432	-0.193570	-1.556396	-0.130859	0.397461
26026		2.500618	-12.370286	3.159023	-1.434740	2.778674	0.081776	-1.572021	-0.128662	0.347656
26027		2.983634	-12.586683	2.508338	-0.649438	3.034418	0.398072	-1.590332	-0.117676	0.303955
26028		4.000107	-9.537596	2.579354	0.333186	3.137992	0.598091	-1.604004	-0.104248	0.262695
26029		6.601500	-3.340043	1.485739	1.297947	3.157991	0.731146	-1.620117	-0.083984	0.210205
26030		11.484085	3.351879	-1.745345	2.385314	3.002357	0.556760	-1.636230	-0.068359	0.170898
26031		23.044936	9.800994	-4.186440	3.012096	2.415879	-0.383936	-1.647461	-0.070801	0.140625
26032		43.862099	18.995020	-5.749172	2.265965	2.191990	-2.268524	-1.650146	-0.118164	0.096680
26033		33.933602	19.935045	-1.454647	-0.077575	4.136584	-2.480677	-1.657715	-0.149902	0.015625
26034		19.138070	18.142287	3.311086	-4.047378	4.244472	-0.803850	-1.664063	-0.149902	-0.051270
26035		18.921438	11.617862	-0.738231	-6.460484	2.918573	0.027463	-1.661377	-0.154541	-0.113525
26036		23.989655	2.361249	-3.587011	-6.326626	3.453365	-0.218440	-1.658936	-0.150146	-0.193115
26037		26.645295	-3.976882	-1.668032	-5.094020	4.552373	-0.579625	-1.647461	-0.141113	-0.283447
26038		28.374576	-5.590310	0.825424	-4.103117	4.826145	-0.451164	-1.633301	-0.139160	-0.375732
26039		28.533280	-2.414935	0.704593	-3.375691	4.807041	0.033805	-1.613037	-0.125488	-0.459717
26040		24.837622	2.510759	0.190988	-2.431935	4.419589	0.264407	-1.579102	-0.112061	-0.534668
26041		20.387020	5.526806	0.487847	-1.669783	3.866856	0.155506	-1.558838	-0.103027	-0.601318
26042		16.865308	5.195140	1.386018	-1.307777	3.255293	0.110657	-1.531738	-0.091797	-0.655029
26043		14.236289	3.112502	1.380877	-1.511945	2.796362	0.298551	-1.502686	-0.073730	-0.700195
26044		12.433207	1.213172	-0.509764	-2.119293	2.334721	0.401867	-1.473877	-0.053467	-0.740967
26045		10.367569	-0.137909	-2.978423	-2.652249	1.847085	0.575577	-1.451904	-0.024170	-0.773682
26046		8.047263	-1.071606	-4.855402	-2.850829	1.360162	0.647789	-1.434570	0.002930	-0.797607
26047		5.980044	-1.871582	-6.077048	-2.737395	0.825383	0.535319	-1.419434	0.025391	-0.808838
26048		3.882026	-2.784029	-6.662053	-2.046810	0.208551	0.374253	-1.415527	0.045654	-0.813477
26049		1.721657	-3.297221	-6.936320	-1.037652	-0.341805	0.111914	-1.406738	0.050293	-0.802734
26050		-0.834777	-3.667007	-7.525592	0.067829	-0.737027	-0.224991	-1.411133	0.041260	-0.791748
26051		-3.821421	-3.494300	-7.580413	0.934898	-1.204285	-0.498897	-1.414795	0.016602	-0.769775
26052		-6.698171	-2.575780	-7.675627	1.575435	-1.929518	-0.676401	-1.427734	-0.008301	-0.734863
26053		-9.045347	-2.231263	-8.983352	2.427586	-2.535229	-0.784311	-1.438477	-0.035400	-0.695801
26054		-11.541070	-4.588097	-12.099501	4.256299	-2.979151	-0.895938	-1.464111	-0.089355	-0.638916
26055		-13.436992	-7.940174	-13.658010	6.648332	-3.356012	-1.028022	-1.480957	-0.136719	-0.582031
26056		-10.641720	-1.029467	-6.237409	4.954737	-3.812349	-0.055024	-1.505615	-0.150146	-0.511230
26057		-6.310091	8.791280	-2.437882	1.392339	-4.017058	1.337282	-1.531494	-0.129883	-0.441162
26058		-1.506069	14.765450	-0.029365	0.267049	-4.376300	1.025676	-1.557373	-0.116211	-0.364502
26059		6.313475	14.558645	8.386607	2.326571	-4.797691	-0.621637	-1.579346	-0.149902	-0.280029
26060		20.304553	10.533984	20.863573	3.268822	-3.616038	-1.939622	-1.582764	-0.188232	-0.238281
26061		39.581856	10.938545	39.433159	0.535785	1.484391	-1.964755	-1.579590	-0.204102	-0.295898
26062		36.893149	9.612908	38.372188	-4.147546	7.026520	-0.962004	-1.549805	-0.199707	-0.424561
26063		14.902454	3.400814	24.016270	-5.661361	5.780536	-0.792606	-1.533691	-0.190674	-0.501953
26064		1.101830	4.508787	8.557492	-3.486352	-0.561889	-0.608751	-1.552246	-0.184082	-0.476807
26065		-5.384055	5.492282	-6.393909	-2.167967	-2.484276	-0.339850	-1.563721	-0.181641	-0.446777
26066		-12.456855	3.606193	-26.229598	-0.144679	-0.811598	-0.165143	-1.570557	-0.181641	-0.438232
26067		-8.590839	-1.430836	-47.225806	4.279400	0.130404	1.015392	-1.586426	-0.184082	-0.429932
26068		-2.413683	-8.677105	-26.031771	6.958899	-1.465051	1.974263	-1.607178	-0.181885	-0.376465
26069		23.991276	-18.009158	37.347955	-3.425295	-0.851496	-0.347766	-1.600830	-0.156982	-0.420166
26070		48.345687	-21.073733	26.580067	-19.471613	3.914795	-3.560710	-1.594238	-0.147949	-0.456787
26071		19.332653	-2.770410	-39.558108	0.823683	-3.372052	-1.067962	-1.611816	-0.170654	-0.389893
26072		14.143872	7.233807	-30.682824	12.174224	-1.877797	1.471115	-1.620361	-0.193115	-0.348633
26073		11.908204	12.360599	-21.565836	13.119413	0.147210	1.581800	-1.613281	-0.210938	-0.326416
26074		4.277533	10.520064	-2.180944	4.778333	0.269400	0.440357	-1.622314	-0.208740	-0.311523
26075		0.068246	2.404452	4.358638	-2.586597	-3.217420	-0.852554	-1.625000	-0.210938	-0.234131
26076		11.991753	3.931923	-8.142527	-0.749868	-5.984727	1.615911	-1.640381	-0.170166	-0.129883
26077		27.848254	13.738531	-10.933178	1.999208	-5.000835	2.944085	-1.648438	-0.143066	-0.044678
26078		39.765738	22.873881	-7.811891	1.065220	-4.172934	-1.396043	-1.641357	-0.167725	0.026855
26079		30.731862	15.276580	-0.719209	-0.692978	-2.906284	-0.747822	-1.632324	-0.176758	0.074707
26080		17.520677	10.063280	3.224082	-1.395761	-3.340858	0.417047	-1.625977	-0.172119	0.134766
26081		15.944624	6.199035	-0.289695	-1.704980	-4.457044	-0.071588	-1.603516	-0.180908	0.202148
26082		19.820769	0.912386	0.476735	-1.904033	-4.321109	-0.049345	-1.587646	-0.192139	0.262939
26083		22.480866	-3.325461	3.084748	-2.862893	-3.340053	-0.005196	-1.569580	-0.198730	0.306396
26084		19.792096	-7.196418	6.396571	-2.518972	-2.518005	-0.078278	-1.557861	-0.212158	0.336914
26085		14.807764	-8.676200	8.294002	-1.476268	-3.180327	-0.008311	-1.537842	-0.214111	0.393066
26086		11.535818	-8.859511	10.008868	0.204853	-4.406145	-0.312078	-1.512939	-0.223145	0.464844
26087		9.956767	-8.952870	11.171673	2.218227	-4.872658	-0.601269	-1.479736	-0.216064	0.536133
26088		8.054537	-8.994154	6.506506	3.414004	-4.214952	-0.413303	-1.464844	-0.195557	0.595947
26089		6.575075	-5.902788	0.167817	4.242875	-2.859897	0.220564	-1.443359	-0.168457	0.632324
26090		5.967085	-1.020118	1.724116	4.695241	-1.158336	0.872136	-1.431396	-0.123291	0.646484
26091		4.694287	3.979669	11.359304	4.301801	-0.579682	0.865641	-1.432617	-0.087402	0.652100
26092		4.537976	7.478465	17.196255	2.650255	-0.644996	0.555249	-1.422119	-0.064697	0.668945
26093		5.485584	10.846640	13.509240	1.318025	-0.091460	0.227517	-1.429199	-0.055664	0.664307
26094		5.054557	12.011130	12.195032	0.935082	0.608882	-0.189482	-1.433594	-0.055908	0.646973
26095		3.133336	9.264011	13.732872	-0.041375	1.518165	-0.471519	-1.453613	-0.062744	0.616699
26096		0.578310	5.639375	9.060235	-0.470206	2.629426	-0.530369	-1.468994	-0.069580	0.582275
26097		-2.068398	2.437455	4.213306	0.145531	2.971951	-0.501394	-1.489014	-0.074219	0.534668
26098		-2.727458	-0.539809	2.332488	0.385760	2.590806	-0.292691	-1.506836	-0.076416	0.504395
26099		-1.056655	-3.142909	2.671882	-0.123313	2.323605	0.118788	-1.527100	-0.074463	0.471680
26100		2.606074	-5.369783	2.537698	-0.778328	2.607573	0.345216	-1.538086	-0.070068	0.428467
26101		5.847500	-6.076370	1.347260	-1.151628	3.075376	0.275795	-1.560547	-0.070068	0.376465
26102		8.091521	-5.189444	1.392350	-1.456388	3.423392	0.028176	-1.584717	-0.081543	0.337646
26103		9.437724	-3.790837	2.463432	-1.864338	3.649724	-0.169479	-1.607178	-0.079346	0.274902
26104		11.273762	-1.398078	1.476512	-1.709089	3.812688	-0.174044	-1.617920	-0.081787	0.212402
26105		14.901676	2.481371	-1.135896	-0.988559	3.645818	-0.244534	-1.631104	-0.088623	0.158691
26106		23.604259	7.001480	-3.406524	-0.415778	3.129114	-0.686606	-1.644043	-0.102295	0.111328
26107		37.524094	12.059892	-4.530088	-0.439407	2.918548	-1.605038	-1.651855	-0.129395	0.055908
26108		33.147259	12.375502	-1.423520	-1.707769	3.997195	-1.477166	-1.655518	-0.143066	-0.019043
