// General information: 
//  MT Manager version: 2021.0.0 
//  XDA version: 2021.0.0 build 5908 rev 109668 built on 2021-04-19
// Device information: 
//  DeviceId: 00B44077
//  ProductCode: MTW2-3A7G6
//  Firmware Version: 4.6.0
//  Hardware Version: 1.1.0
// Device settings: 
//  Filter Profile: human(46.1)
//  Option Flags: Orientation Smoother Disabled, Position/Velocity Smoother Disabled, Continuous Zero Rotation Update Disabled, AHS Disabled, ICC Disabled
// Coordinate system: ENU
PacketCounter	SampleTimeFine	Acc_X	Acc_Y	Acc_Z	Gyr_X	Gyr_Y	Gyr_Z	Mag_X	Mag_Y	Mag_Z
24843		-14.737064	-1.808399	-4.637130	-0.796760	-4.385331	2.181832	1.936035	0.136719	-0.214844
24844		-7.942355	-8.525434	-6.727560	-0.633419	-3.515206	1.936408	1.942139	0.096680	-0.281982
24845		1.827686	-12.184270	-9.083457	-0.183333	-2.177983	1.220304	1.936279	0.078857	-0.310303
24846		8.198679	-13.665087	-11.336078	0.494524	-0.688611	0.271747	1.947266	0.079102	-0.314697
24847		9.062447	-13.939184	-13.908185	1.041829	0.743109	-0.718198	1.941895	0.101318	-0.286621
24848		4.775202	-10.966623	-13.885098	1.676009	2.093175	-1.555281	1.949219	0.141357	-0.236816
24849		0.652353	-7.212077	-11.925906	2.125239	3.005195	-2.322594	1.947266	0.192383	-0.174316
24850		-1.155311	-5.924745	-12.424533	2.438991	3.464543	-2.707825	1.940186	0.254639	-0.096436
24851		-3.745150	-6.950274	-13.584887	2.616347	3.913104	-2.483672	1.927002	0.308105	-0.022949
24852		-6.380088	-9.541521	3.768661	3.939538	4.060223	-2.400435	1.908691	0.370117	0.043701
24853		-13.510450	-9.197882	15.878845	4.667798	2.437822	-3.326933	1.887207	0.461182	0.070068
24854		-19.913429	-0.941661	-0.537897	3.113072	2.558122	-3.855576	1.862061	0.536621	0.129639
24855		-32.695307	-4.937638	-5.235776	0.619378	3.879704	-3.277831	1.814209	0.614014	0.191406
24856		-14.235296	7.536983	-11.820590	-0.177610	3.357880	-3.727261	1.787109	0.676025	0.258057
24857		-13.299010	1.747750	-19.246875	-1.362191	3.684828	-0.876976	1.758057	0.675537	0.348145
24858		-14.343314	-12.126599	-15.929115	-1.704653	3.440328	-1.953993	1.713623	0.726318	0.406250
24859		-5.025390	-16.156339	-11.502641	0.116020	2.533999	-5.026717	1.638184	0.830078	0.445068
24860		2.689424	-16.687932	-14.816159	1.239222	2.563929	-5.459925	1.565430	0.918457	0.464355
24861		1.218457	-17.589361	-10.179306	3.053598	2.285416	-2.516813	1.521484	0.955811	0.480957
24862		-3.139726	-14.324487	-4.715502	-0.534300	2.177412	-1.226197	1.484619	0.984375	0.510742
24863		-4.517619	-9.606630	-11.504676	0.607800	1.845585	-1.799665	1.434814	1.006104	0.529785
24864		-8.838490	-15.453685	-9.855969	0.217577	2.419718	-0.444681	1.403320	1.012451	0.555908
24865		-19.656615	-18.701639	-8.735223	0.093108	1.424363	0.426057	1.383789	0.996582	0.562744
24866		-29.051332	-9.236130	-9.354150	0.264941	0.708605	0.763462	1.359375	0.991943	0.560547
24867		-19.290955	-4.660759	-7.355133	-0.551318	0.211079	-1.782146	1.318604	1.009277	0.559814
24868		-12.468730	-8.721105	-8.369759	-0.563426	0.374895	-1.823347	1.282715	1.015625	0.550781
24869		-19.964185	-13.737449	-7.637691	-0.056432	0.401288	-0.133688	1.269775	1.001953	0.546631
24870		-27.959294	-7.373989	-4.721212	0.129592	0.242101	-0.274325	1.240479	1.008301	0.532959
24871		-26.536591	7.385070	-1.969481	-0.243406	0.163427	-1.215633	1.214111	1.001465	0.526367
24872		-22.706392	10.314718	0.837554	-0.705867	0.087820	-0.820083	1.196289	0.996826	0.528564
24873		-19.755927	3.360935	2.634121	-1.269932	0.084562	-0.983156	1.172119	0.987549	0.520020
24874		-17.537487	1.957443	5.886327	-1.089745	0.179861	-1.241619	1.149902	0.987305	0.519775
24875		-15.940912	5.508404	9.923207	-0.782841	0.343210	-0.815983	1.136719	0.980469	0.520020
24876		-17.312188	7.194794	12.076565	-0.987544	0.418283	-0.509999	1.123779	0.969238	0.522217
24877		-15.643205	5.008534	10.622249	-1.586431	0.415242	-0.672927	1.104004	0.960205	0.537842
24878		-7.977988	2.662441	8.884907	-1.826576	0.625311	-1.105958	1.095459	0.951172	0.555664
24879		-0.758573	4.404940	8.530599	-1.611354	1.137544	-1.670579	1.057373	0.957520	0.575195
24880		-0.463300	7.083200	8.527055	-1.543300	1.855322	-2.129986	1.025879	0.961670	0.605713
24881		-3.317787	6.764569	8.790259	-1.619836	2.533361	-2.503604	0.976074	0.976563	0.646973
24882		-6.114052	4.432723	7.717327	-1.681181	3.114364	-2.775659	0.922119	0.987061	0.690430
24883		-7.925256	2.260221	5.895943	-1.731000	3.571067	-2.878321	0.854980	0.993164	0.740479
24884		-9.466159	2.539542	5.050289	-1.732599	3.863781	-2.876808	0.796631	1.001465	0.792969
24885		-11.559109	5.767441	5.458524	-1.727706	4.011823	-2.821801	0.727051	1.007324	0.836426
24886		-13.638846	9.205259	4.912865	-2.098274	4.010227	-2.699421	0.657959	1.004395	0.891113
24887		-13.703348	9.893122	3.295781	-2.697345	3.885260	-2.598869	0.596191	0.990234	0.946289
24888		-11.754469	8.135920	1.889806	-3.238090	3.709685	-2.495535	0.529785	0.971680	1.010254
24889		-10.125362	5.563359	0.546866	-3.519358	3.620471	-2.277685	0.472900	0.942139	1.063477
24890		-9.724625	3.495423	-0.583178	-3.545324	3.562812	-1.963571	0.405029	0.910156	1.127686
24891		-9.942647	1.201814	-1.546943	-3.586991	3.473584	-1.552047	0.351074	0.867432	1.181396
24892		-10.877473	-2.631130	-4.542409	-3.612323	3.254121	-0.961111	0.299072	0.826660	1.228516
24893		-13.020238	-8.300920	-9.478661	-2.553702	2.838609	-0.198858	0.266357	0.806396	1.261719
24894		-16.647648	-12.272786	-9.952389	-0.436556	2.571188	0.200159	0.228271	0.808105	1.285645
24895		-18.777707	-11.919265	-7.517490	-0.017764	2.160091	-0.013320	0.199219	0.810059	1.301025
24896		-17.034706	-9.881773	-8.985024	-0.305837	1.498690	-0.128806	0.185791	0.809814	1.320801
24897		-13.967934	-9.205234	-10.123089	-0.104639	0.901275	0.362790	0.183594	0.812012	1.338379
24898		-11.823126	-10.212710	-11.333002	0.003238	0.135569	1.046413	0.203857	0.803467	1.347412
24899		-9.697374	-11.771361	-12.639281	0.408822	-0.684677	1.448395	0.236816	0.817139	1.356201
24900		-7.626734	-12.095559	-12.679646	0.945245	-1.331621	1.703286	0.281006	0.831055	1.362549
24901		-6.270760	-10.735010	-12.659722	1.169094	-1.964614	1.827845	0.338135	0.849365	1.344971
24902		-5.273093	-8.321574	-11.946377	1.293207	-2.580538	1.919936	0.400146	0.863281	1.342773
24903		-4.162494	-5.803257	-10.858721	1.207954	-3.245421	2.014666	0.482178	0.873291	1.329590
24904		-2.529349	-3.980279	-10.121653	1.195874	-3.902256	2.149057	0.575439	0.885254	1.310059
24905		-1.001171	-3.282245	-9.396700	1.179237	-4.545031	2.298496	0.678223	0.884277	1.275391
24906		0.061559	-3.947116	-9.184459	1.240381	-5.128114	2.388951	0.778564	0.889648	1.234131
24907		0.479349	-5.016774	-9.070018	1.470543	-5.615328	2.499199	0.890137	0.890869	1.177490
24908		-0.141782	-5.552691	-8.610711	2.103236	-6.292631	2.695419	1.007813	0.901123	1.098389
24909		-0.743645	-3.693759	-5.057675	2.074664	-6.511332	2.630122	1.120117	0.888916	1.024414
24910		-0.473616	-2.160404	-4.549362	0.740334	-6.582201	2.638544	1.235107	0.854736	0.951172
24911		-0.321411	-2.925148	-6.780852	-0.049384	-6.880981	3.271638	1.348633	0.809082	0.858154
24912		-0.498325	-5.529506	-7.480347	0.020719	-7.124267	3.816066	1.457764	0.756836	0.763184
24913		0.171273	-7.079380	-7.581595	-0.007442	-7.211831	3.983768	1.558594	0.693359	0.659424
24914		0.885538	-7.370815	-7.919230	0.089046	-7.065710	4.094370	1.650635	0.627686	0.553711
24915		-0.230421	-8.378237	-7.545143	0.531830	-6.718904	4.401097	1.729492	0.552734	0.434814
24916		-2.963244	-9.839407	-7.777043	1.053861	-6.316250	4.655271	1.792480	0.482422	0.320068
24917		-5.506644	-10.846426	-9.051331	1.484909	-5.803102	4.701999	1.843018	0.391602	0.210205
24918		-6.991555	-10.314723	-9.978004	1.706155	-5.235502	4.586052	1.879883	0.312012	0.111084
24919		-8.384892	-7.992849	-8.862280	1.556496	-4.468599	4.157343	1.898438	0.236328	0.040283
24920		-11.105775	-3.789792	-6.458589	1.378754	-3.547689	3.118086	1.908936	0.196533	-0.035645
24921		-11.511421	-1.880967	-6.132458	0.952903	-2.646833	1.896965	1.925781	0.165527	-0.081055
24922		-6.588549	-9.245775	-7.545163	0.784762	-1.888856	1.125031	1.931152	0.143311	-0.111328
24923		2.228092	-13.377044	-8.474961	0.409719	-0.791319	0.178264	1.926758	0.145508	-0.118164
24924		9.222850	-11.719878	-9.743409	0.127481	0.709400	-0.749360	1.925537	0.172119	-0.085693
24925		4.834950	-10.355552	-10.878167	0.247991	2.116119	-0.974185	1.927002	0.194580	-0.033447
24926		-1.520996	-12.001228	-11.507695	0.747941	2.919416	-1.340379	1.909912	0.227539	0.036133
24927		-3.617175	-15.984069	-2.766252	2.040098	3.521250	-2.054330	1.891846	0.287598	0.107422
24928		-11.642431	-23.127425	2.675092	3.272589	3.806442	-3.194763	1.867920	0.383057	0.173096
24929		-24.649449	-14.460860	-3.518115	3.318608	3.992859	-5.679405	1.820557	0.511475	0.246826
24930		-47.865494	36.386014	6.523071	3.074581	4.233770	-3.010964	1.787109	0.562500	0.300537
24931		-20.796714	-0.041386	-6.788066	-1.163326	2.668517	-3.283601	1.747314	0.613281	0.354004
24932		-1.402323	-7.095585	-20.157020	-3.507394	2.451294	-2.421000	1.715332	0.630615	0.417480
24933		14.487444	-14.963968	-24.251908	-4.354667	0.996224	-4.118737	1.663086	0.708008	0.479004
24934		19.703058	-23.637284	-24.018915	1.467419	4.252670	-3.444496	1.604736	0.769531	0.523438
24935		-4.603182	-15.291314	-3.607944	3.759715	4.553825	-2.458043	1.537598	0.829102	0.563477
24936		-14.645794	-6.621830	-11.173390	-0.093417	1.961507	-2.679620	1.498535	0.862061	0.588867
24937		-11.916179	-10.133899	-11.746478	-0.667300	1.581045	-1.143005	1.455566	0.872559	0.619141
24938		-12.250212	-14.045305	-11.020009	-0.921872	1.542827	-1.130072	1.417236	0.883301	0.645264
24939		-20.531130	-15.228772	-12.205853	-0.574194	1.885518	-0.168439	1.384033	0.874023	0.665039
24940		-25.996291	-15.560595	-9.224392	0.109742	0.735755	0.269673	1.364014	0.873779	0.658203
24941		-18.654060	-12.516815	-7.562601	-0.206982	0.574841	-1.644408	1.318359	0.900146	0.655273
24942		-13.078883	-14.192241	-7.166598	-0.009048	0.451252	-2.023327	1.275391	0.915283	0.652344
24943		-10.345612	-15.490591	-6.600991	-0.005229	0.414145	-1.452882	1.248291	0.921631	0.643311
24944		-14.642777	-11.963560	-5.254183	0.150920	0.531260	-0.004710	1.232910	0.919189	0.638672
24945		-28.153502	-1.028977	-2.503940	-0.006919	0.453183	1.275382	1.222900	0.885742	0.628662
24946		-37.554364	13.374030	0.019467	-0.456937	0.156293	0.245912	1.205322	0.878906	0.615479
24947		-23.342792	7.874839	0.079514	-1.155700	-0.139239	-1.573178	1.176514	0.874023	0.610840
24948		-15.851084	1.677489	1.774069	-1.343235	-0.110116	-1.175219	1.160889	0.874023	0.608643
24949		-13.422424	3.416320	3.372666	-1.184746	0.006161	-0.869715	1.143799	0.855957	0.604492
24950		-13.381184	2.364547	6.067326	-0.979067	0.132846	-0.332202	1.139893	0.842529	0.596191
24951		-13.392674	0.868179	7.456559	-0.997127	0.092774	-0.266124	1.126709	0.837891	0.598389
24952		-11.560650	-0.594302	8.225777	-0.889867	0.263094	-0.370600	1.115967	0.826660	0.591797
24953		-8.589502	-0.235293	9.794459	-0.411465	0.714771	-0.711769	1.102783	0.824463	0.591797
24954		-6.552038	2.845450	10.233379	-0.038900	1.108508	-1.117498	1.077637	0.837402	0.595947
24955		-4.685027	4.708581	10.147037	-0.199995	1.500662	-1.501101	1.048340	0.845947	0.610840
24956		-3.065284	7.914489	10.837406	-0.526223	1.971472	-1.873265	1.016602	0.854492	0.632568
24957		-3.764698	9.979091	10.259774	-0.983640	2.426396	-2.338567	0.969238	0.869629	0.667236
24958		-4.669507	8.243782	8.652027	-1.496529	2.867102	-2.801856	0.915039	0.884766	0.708252
24959		-6.354790	6.994587	8.331774	-1.849124	3.317891	-3.098716	0.861084	0.897461	0.753906
24960		-9.000214	8.110033	8.824872	-2.058334	3.644222	-3.264462	0.796143	0.901123	0.799805
24961		-10.966882	8.782869	7.766126	-2.373818	3.823663	-3.301702	0.722168	0.904785	0.858643
24962		-11.554142	6.710446	6.079336	-2.651003	3.968041	-3.163572	0.657959	0.893066	0.913818
24963		-11.486140	4.373689	4.584753	-2.691177	4.050373	-2.875522	0.591064	0.892334	0.964111
24964		-11.833971	3.183055	3.091953	-2.480118	4.076759	-2.540494	0.524658	0.875977	1.021240
24965		-12.589717	2.983157	2.480431	-2.188951	4.060669	-2.213499	0.449219	0.868408	1.065186
24966		-13.204944	2.046246	2.553232	-2.013570	4.018092	-1.903412	0.387207	0.852295	1.100586
24967		-13.623870	-0.534488	0.290663	-2.356102	3.954526	-1.488900	0.328125	0.827148	1.151367
24968		-15.106652	-5.401538	-4.570792	-2.472264	3.868040	-0.803987	0.270752	0.806396	1.197998
24969		-18.769723	-11.665137	-10.234150	-1.562732	3.297067	0.062079	0.224609	0.788086	1.224609
24970		-22.436822	-15.710303	-12.368551	0.083226	2.742230	0.503546	0.190430	0.807861	1.241455
24971		-19.202455	-11.240712	-9.538186	0.468197	2.254219	-0.170721	0.161133	0.811768	1.258789
24972		-13.397229	-4.497744	-9.097385	0.008555	1.696619	0.258367	0.149902	0.816162	1.274170
24973		-11.426060	-2.362357	-9.854235	-0.408604	0.960309	1.262651	0.154785	0.807373	1.296387
24974		-10.211708	-4.452466	-11.262734	-0.525361	0.061697	1.597984	0.179443	0.798584	1.312012
24975		-8.444746	-8.062222	-13.008775	-0.507555	-0.888699	1.807152	0.215332	0.796875	1.341064
24976		-6.898452	-10.749508	-14.343095	-0.069870	-1.860999	2.060356	0.266602	0.795166	1.345703
24977		-5.650496	-11.541474	-14.444844	0.580610	-2.576484	2.227597	0.342285	0.804932	1.350342
24978		-4.642827	-9.946594	-12.742710	1.062903	-3.219206	2.308551	0.417480	0.819092	1.334961
24979		-3.735841	-7.351867	-10.747939	1.051184	-4.025961	2.565835	0.522217	0.820068	1.329102
24980		-3.025380	-5.993690	-9.978654	1.000821	-4.845840	2.839399	0.629395	0.823486	1.296631
24981		-2.320256	-6.161483	-9.901682	1.200743	-5.571791	2.951000	0.740967	0.822510	1.250977
24982		-1.879138	-7.372089	-10.430805	1.869543	-6.159150	2.918562	0.867920	0.826172	1.192139
24983		-1.408982	-6.711144	-8.577871	2.252678	-6.587702	2.798525	0.983887	0.829590	1.126465
24984		-0.764402	-5.150953	-7.447197	1.528018	-7.141386	2.828250	1.113770	0.819824	1.043701
24985		-0.219447	-4.056920	-8.459663	0.687523	-7.473945	3.151159	1.242432	0.783447	0.955078
24986		-0.711819	-3.804456	-8.825109	0.481358	-7.693673	3.554848	1.358154	0.738037	0.851074
24987		-1.036578	-4.052894	-8.358379	0.160626	-8.030546	3.829526	1.476807	0.677002	0.745361
24988		-0.822743	-5.811772	-8.460974	-0.142555	-8.171064	4.156319	1.581787	0.617920	0.624023
24989		-1.671152	-9.002764	-8.559626	0.006864	-8.018194	4.338195	1.680908	0.541260	0.498779
24990		-3.617003	-12.460446	-7.972071	0.477586	-7.624979	4.374408	1.757324	0.468506	0.357666
24991		-6.295604	-13.321136	-8.119181	0.786433	-7.108437	4.275167	1.809570	0.391357	0.234375
24992		-8.929020	-11.515171	-8.394163	0.678556	-6.431447	4.184511	1.850586	0.316162	0.124023
24993		-11.624259	-9.063725	-7.729760	0.279904	-5.576085	4.020671	1.878418	0.238525	0.020264
24994		-15.151268	-5.379101	-7.371618	0.332707	-4.675066	3.262097	1.893799	0.185303	-0.064209
24995		-15.292381	-2.970796	-6.098609	0.524670	-3.737165	2.145640	1.904297	0.149658	-0.133789
24996		-7.529604	-8.418016	-7.986967	0.395393	-2.954589	1.586213	1.900879	0.120850	-0.183838
24997		3.205467	-11.587890	-9.196413	0.493763	-1.700473	0.910098	1.905762	0.109619	-0.212158
24998		9.372720	-10.937950	-10.122720	0.854283	-0.055635	-0.053759	1.908203	0.109619	-0.200928
24999		7.263079	-10.928763	-11.460880	1.235044	1.478385	-0.713547	1.907227	0.134277	-0.164307
25000		3.239066	-11.214671	-12.562352	1.715040	2.581171	-1.378233	1.905518	0.174316	-0.101318
25001		0.483361	-11.225456	-12.228395	2.328827	3.340509	-2.029367	1.901367	0.223145	-0.036377
25002		-2.617908	-11.315579	-13.189419	2.807959	3.794166	-2.365784	1.887939	0.278564	0.037109
25003		-4.043511	-11.809866	-6.676838	3.778485	4.022947	-2.562753	1.860840	0.338379	0.112549
25004		-9.767417	-11.096398	13.541208	5.251570	3.407667	-2.906876	1.837402	0.425049	0.143311
25005		-14.954995	-5.280025	3.351463	4.405704	2.415465	-3.943572	1.804443	0.520264	0.184814
25006		-30.157096	2.912515	-3.740398	2.433932	3.808926	-3.008570	1.761719	0.584473	0.251221
25007		-24.334156	9.089830	-6.265448	0.144232	3.585408	-3.475160	1.720947	0.655273	0.313232
25008		-8.483062	5.378104	-17.946122	-1.633923	2.812456	-2.574897	1.693604	0.672607	0.385254
25009		-9.700043	-7.942974	-21.526747	-3.898439	3.310345	-1.736293	1.654785	0.689941	0.461914
25010		-3.619459	-16.843281	-16.771828	-1.592925	2.336796	-3.921783	1.589355	0.762695	0.492676
25011		4.488986	-18.887505	-13.412506	1.506123	2.928179	-5.406222	1.518066	0.871094	0.518311
25012		-1.184901	-18.415867	-10.027291	2.853724	2.972503	-3.320663	1.467041	0.921875	0.545410
25013		-10.759353	-15.571616	-4.449276	-0.389948	2.020835	-0.659052	1.428955	0.927979	0.571289
25014		-9.674713	-9.804099	-10.970343	-0.244115	1.447697	-1.926874	1.371826	0.960693	0.594482
25015		-6.906792	-9.253826	-10.134124	-0.149371	1.994959	-2.078695	1.333252	0.976074	0.615967
25016		-13.353283	-17.683125	-9.040870	-0.328771	1.574983	0.011350	1.304688	0.966797	0.626953
25017		-22.811606	-17.264764	-9.893966	0.109831	0.979073	0.696721	1.282715	0.955322	0.625000
25018		-24.310239	-10.568060	-8.921270	0.150069	0.536297	-0.566403	1.249023	0.959473	0.622559
25019		-17.291148	-10.458508	-9.353455	-0.239127	0.268455	-1.734511	1.215088	0.974609	0.608643
25020		-16.938875	-9.815042	-9.015982	0.214611	0.433020	-0.736399	1.192871	0.972168	0.599854
25021		-26.189313	-3.876533	-6.512593	0.194574	0.323991	0.310169	1.179932	0.958740	0.591309
25022		-28.574019	4.387619	-3.745934	-0.153319	0.111844	-0.517300	1.157959	0.951904	0.571533
25023		-23.383287	6.909429	-1.845544	-0.594660	-0.083722	-1.086616	1.140137	0.949463	0.564697
25024		-18.815399	4.163068	0.211175	-1.193662	-0.200051	-1.090924	1.118408	0.937988	0.560547
25025		-15.615048	2.171179	3.085657	-1.410252	-0.259221	-1.207030	1.100830	0.931152	0.558350
25026		-12.323698	3.181393	5.623690	-1.341035	-0.226888	-0.743880	1.092285	0.917725	0.558594
25027		-12.799468	1.716241	8.606640	-1.321621	-0.050425	-0.180565	1.084229	0.899902	0.552490
25028		-12.566182	-0.853867	9.455370	-1.304947	0.177445	-0.242897	1.075684	0.886475	0.559326
25029		-11.574405	-2.350508	9.484386	-0.921730	0.613958	-0.478218	1.065186	0.873047	0.563965
25030		-9.662138	-0.281142	10.312296	-0.187498	0.832256	-0.806494	1.044434	0.885986	0.559082
25031		-6.080946	3.742245	11.378211	0.232227	1.097947	-1.191822	1.026611	0.885986	0.561279
25032		-3.321960	10.204108	12.807016	0.224810	1.556563	-1.623071	0.992432	0.903320	0.573975
25033		-2.765582	14.932576	12.495923	-0.377421	2.074232	-2.098605	0.958252	0.920654	0.590820
25034		-4.070428	13.045896	10.719727	-1.263233	2.616573	-2.543937	0.913330	0.931396	0.636719
25035		-6.856330	10.237970	9.475608	-1.848945	3.145831	-2.911811	0.854736	0.941895	0.684570
25036		-9.783875	9.457026	9.144575	-2.223111	3.576258	-3.274097	0.794189	0.952393	0.743408
25037		-11.976268	8.197766	7.326231	-2.622948	3.771714	-3.405002	0.722900	0.949463	0.793701
25038		-13.541989	7.713146	4.958866	-2.992426	3.844472	-3.318476	0.653564	0.950928	0.861572
25039		-14.468727	6.918703	2.952235	-3.266990	3.858978	-3.115574	0.591553	0.936768	0.918945
25040		-14.122534	5.346411	1.557230	-3.425228	3.824903	-2.861091	0.523438	0.911621	0.980713
25041		-13.346109	3.514454	0.056974	-3.504633	3.766454	-2.507177	0.459229	0.895264	1.038086
25042		-13.117972	2.140815	-0.347136	-3.471595	3.693293	-2.130517	0.395508	0.867920	1.097900
25043		-13.343841	0.413683	-1.701803	-3.882851	3.589408	-1.688101	0.337158	0.822754	1.158203
25044		-14.183021	-3.713049	-5.831784	-4.313428	3.410674	-1.013896	0.285400	0.773193	1.216309
25045		-15.945456	-9.849538	-11.431588	-3.255178	2.741906	-0.275921	0.248535	0.746094	1.254395
25046		-17.281349	-13.324790	-11.670014	-1.013762	2.411079	0.060207	0.211182	0.734375	1.274170
25047		-15.831832	-11.880639	-9.986041	-0.524548	2.011660	-0.046876	0.193359	0.732178	1.300537
25048		-12.888303	-10.249079	-11.677664	-0.696775	1.278624	0.304581	0.180176	0.727539	1.324951
25049		-10.565481	-10.248031	-13.025062	-0.439821	0.618139	0.939688	0.191406	0.723145	1.344971
25050		-8.879060	-11.513931	-14.337260	-0.028275	-0.272807	1.574929	0.220459	0.721191	1.354004
25051		-7.106418	-12.786593	-14.969824	0.638232	-1.177428	2.008805	0.268799	0.739502	1.360352
25052		-5.450780	-12.488422	-14.394185	1.234769	-1.866208	2.197838	0.324463	0.744629	1.358398
25053		-4.408261	-10.667649	-13.423357	1.567196	-2.553448	2.252372	0.388184	0.769775	1.351563
25054		-3.166773	-8.205760	-11.930091	1.707227	-3.263701	2.323779	0.474365	0.792969	1.335938
25055		-1.502162	-6.259118	-10.664830	1.780775	-3.906474	2.459515	0.562988	0.807373	1.307617
25056		0.344300	-4.821731	-9.387932	2.013169	-4.483941	2.642281	0.665283	0.817383	1.270508
25057		1.743423	-4.150752	-8.264572	2.027029	-5.165560	2.853827	0.771973	0.829590	1.215576
25058		2.357261	-4.414236	-7.699443	1.996844	-5.826641	2.990324	0.883789	0.821777	1.161377
25059		2.129396	-4.609485	-7.067157	1.707776	-6.310084	3.103601	1.004395	0.823242	1.095947
25060		1.594545	-4.927786	-6.904538	1.221806	-6.588724	3.320482	1.121582	0.793213	1.018066
25061		1.121477	-5.262471	-7.367782	0.790269	-6.801959	3.583363	1.243408	0.759033	0.937988
25062		0.812316	-5.701484	-7.665344	0.649646	-7.065820	3.798872	1.356934	0.711182	0.843018
25063		0.509972	-5.896240	-7.641113	0.514778	-7.269272	3.989242	1.461426	0.665771	0.747803
25064		-0.242917	-6.383148	-7.076614	0.523227	-7.330299	4.112184	1.557617	0.608887	0.628662
25065		-1.936847	-7.602313	-7.039227	0.657845	-7.291281	4.093918	1.635986	0.547363	0.509277
25066		-3.922031	-10.110690	-7.201929	0.950715	-7.077307	4.014475	1.709961	0.481445	0.394531
25067		-5.641940	-12.657288	-7.725333	1.186518	-6.774643	3.799741	1.765869	0.426514	0.268555
25068		-6.555333	-13.366826	-8.378827	1.144436	-6.335066	3.540986	1.810547	0.366699	0.151123
25069		-6.458446	-11.088137	-7.145075	0.475736	-5.696356	3.419181	1.842041	0.307129	0.055908
25070		-7.490556	-5.317728	-4.933165	-0.494040	-4.699002	3.319356	1.851318	0.247070	-0.024170
25071		-12.546550	2.332949	-4.307768	-0.923533	-3.658412	2.540801	1.866455	0.202637	-0.084717
25072		-13.123396	-0.610838	-4.858580	-1.442948	-3.105014	1.430916	1.869629	0.180420	-0.128174
25073		-6.149327	-8.059461	-7.746983	-1.723555	-2.313393	0.650082	1.881104	0.171875	-0.169678
25074		3.619974	-11.983906	-10.199844	-1.303643	-1.117064	-0.176004	1.878174	0.187256	-0.172363
25075		9.970254	-12.718972	-11.644768	-0.572245	0.447902	-1.083902	1.872803	0.213867	-0.150879
25076		7.803271	-12.026334	-13.991949	0.229257	1.955504	-1.416480	1.871582	0.240723	-0.096436
25077		2.060524	-9.201983	-14.462485	1.311490	3.200867	-1.832873	1.858643	0.284912	-0.029297
25078		-3.148491	-7.878301	-15.053842	2.557209	3.908435	-1.995701	1.847412	0.340576	0.048584
25079		-5.047716	-11.850424	1.445116	4.932695	4.374447	-1.995128	1.820313	0.402588	0.106201
25080		-15.340445	-16.561209	16.291780	5.384676	3.138929	-2.934192	1.794922	0.482422	0.143799
25081		-27.357103	-4.741298	-4.597550	5.120101	3.403634	-4.293532	1.760010	0.571045	0.198730
25082		-51.072154	20.206854	5.782937	2.727616	4.150724	-2.932727	1.721191	0.650879	0.247314
25083		-5.670276	10.795214	-6.020360	-1.170227	2.624358	-3.340627	1.686523	0.681641	0.305664
25084		-2.083374	-0.922735	-20.583846	-2.660695	2.734514	-1.112693	1.652588	0.692383	0.380127
25085		-1.464507	-10.584442	-20.818903	-3.288277	3.047673	-2.387010	1.597412	0.731689	0.453857
25086		11.198608	-23.114921	-19.944440	-0.639059	3.053406	-5.524480	1.526123	0.837891	0.490479
25087		6.411573	-18.747326	-13.697127	3.372017	4.234651	-4.182506	1.458740	0.906006	0.532471
25088		-12.550271	-11.360066	-8.116498	1.242941	3.294899	-1.409896	1.415527	0.925781	0.564697
25089		-14.002114	-13.433566	-10.008121	-0.781061	1.804915	-1.073126	1.375000	0.938477	0.594971
25090		-8.244801	-11.123883	-11.090163	-0.319530	1.782496	-2.108940	1.317871	0.966797	0.615967
25091		-9.689325	-14.406832	-12.067892	-0.444684	2.123202	-1.198683	1.282227	0.966553	0.644531
25092		-17.049012	-17.599458	-11.009169	0.075497	1.511766	0.345280	1.255615	0.961670	0.651123
25093		-21.402752	-13.182037	-8.998610	0.492716	1.037249	-0.102749	1.224365	0.963623	0.644287
25094		-18.308317	-11.331422	-8.680911	-0.246606	0.603419	-1.592014	1.181396	0.978760	0.650146
25095		-13.741999	-15.506210	-10.207992	-0.278813	0.369207	-1.642661	1.147705	0.982910	0.634521
25096		-12.821819	-16.593749	-9.476514	0.040035	0.343226	-0.274746	1.130371	0.969238	0.623779
25097		-22.332268	-10.753253	-6.863695	0.323871	0.354984	0.974009	1.124512	0.951416	0.608643
25098		-34.230290	3.225861	-3.396188	-0.054795	0.132237	0.435448	1.107422	0.933594	0.589111
25099		-31.535298	13.465965	-1.769222	-0.573151	-0.122546	-1.175986	1.084961	0.935547	0.582520
25100		-20.945419	7.051187	0.073672	-1.288635	-0.268640	-1.445988	1.060791	0.926270	0.575928
25101		-16.990369	2.821149	1.743438	-1.598915	-0.232870	-1.012800	1.054688	0.910645	0.569580
25102		-13.554719	4.906395	4.546082	-1.570857	-0.109837	-0.678321	1.037354	0.897217	0.572021
25103		-13.470810	3.171713	7.127396	-1.596298	0.025534	-0.239130	1.033936	0.870361	0.574951
25104		-12.184909	0.559286	9.224197	-1.476808	0.072283	-0.230830	1.028076	0.852539	0.577637
25105		-9.433728	-2.525210	10.835556	-1.047106	0.453155	-0.262648	1.017334	0.841309	0.571045
25106		-7.451616	-2.210837	11.646954	-0.251612	0.986810	-0.569441	1.001709	0.841064	0.582031
25107		-6.824988	0.615919	11.770772	0.192710	1.389015	-1.007687	0.983398	0.852051	0.577393
25108		-4.361293	5.495098	12.005101	0.094052	1.747283	-1.389696	0.958496	0.862793	0.585693
25109		-3.209871	12.772411	12.084243	-0.506932	2.234838	-1.862885	0.924561	0.873535	0.615967
25110		-4.195940	14.358459	12.023698	-1.427986	2.743604	-2.524081	0.870605	0.879639	0.655273
25111		-6.402038	10.842008	10.960151	-2.407721	3.217500	-3.151520	0.818604	0.894775	0.705322
25112		-8.070655	7.767862	9.298147	-3.023858	3.595132	-3.519029	0.749756	0.889648	0.764404
25113		-10.116475	6.593063	8.019317	-3.458473	3.898604	-3.663944	0.680664	0.886475	0.828125
25114		-11.678134	4.314903	5.835716	-3.777477	4.135227	-3.570554	0.607910	0.865723	0.883301
25115		-12.722868	2.476604	4.331177	-3.719769	4.267121	-3.279311	0.532471	0.849365	0.960449
25116		-13.579523	1.524845	2.611933	-3.446864	4.299286	-2.885080	0.459717	0.830811	1.008789
25117		-14.037273	1.325888	1.263293	-3.006797	4.243545	-2.449184	0.388916	0.812256	1.061768
25118		-14.296336	0.363813	0.753373	-2.765907	4.162535	-2.045014	0.325195	0.789307	1.103760
25119		-14.218776	-2.313484	-1.223762	-2.689514	4.089051	-1.577266	0.256836	0.763916	1.143799
25120		-15.333426	-5.637467	-5.032134	-2.517703	3.777270	-1.013706	0.197754	0.736572	1.183838
25121		-17.846862	-10.868403	-10.933696	-1.362746	3.152869	-0.251394	0.155518	0.731689	1.207764
25122		-19.640717	-12.509295	-9.694680	0.381110	2.787212	-0.122156	0.117188	0.742432	1.220703
25123		-16.169048	-7.477061	-8.299721	-0.149613	2.284913	-0.641012	0.083740	0.739746	1.238037
25124		-11.977733	-4.140263	-10.477433	-0.746577	1.533607	-0.249907	0.061523	0.739502	1.262207
25125		-9.957806	-5.464458	-12.430611	-0.586307	0.761565	0.473784	0.068115	0.737305	1.286621
25126		-8.559006	-8.172366	-13.751469	-0.168379	-0.160181	0.988170	0.081543	0.737549	1.302002
25127		-6.712828	-9.562768	-14.016670	0.378429	-0.956637	1.231473	0.112061	0.755615	1.310547
25128		-5.081716	-8.693625	-13.417211	0.745867	-1.614050	1.249424	0.147217	0.769531	1.321533
25129		-3.911856	-7.097516	-12.975622	0.936811	-2.405288	1.394546	0.213623	0.785645	1.319336
25130		-3.010032	-5.754673	-12.217055	1.130500	-3.167318	1.664731	0.279785	0.804199	1.308105
25131		-2.121442	-5.202212	-11.048663	1.144222	-3.935091	1.973525	0.370850	0.816406	1.303955
25132		-1.225018	-5.967295	-10.933160	1.070910	-4.692305	2.255179	0.468506	0.826172	1.288818
25133		-0.486998	-7.408207	-10.804456	1.482722	-5.252932	2.364927	0.568115	0.849609	1.251465
25134		0.079075	-6.957610	-9.339332	2.113115	-5.567315	2.321169	0.676758	0.864258	1.214355
25135		-0.256949	-4.371322	-7.463833	2.273418	-5.908760	2.408768	0.796875	0.878906	1.159424
25136		-1.117070	-2.652160	-6.597573	1.917953	-6.405428	2.648233	0.912842	0.882324	1.089600
25137		-1.622307	-3.417885	-7.458030	1.531364	-6.798152	2.992689	1.038086	0.874756	1.020020
25138		-1.638444	-4.806099	-8.233200	1.512176	-7.025816	3.261290	1.154785	0.855957	0.930664
25139		-1.312001	-5.479217	-8.825067	1.610121	-7.290597	3.393658	1.271729	0.837158	0.834961
25140		-0.549509	-5.282613	-8.887462	1.645586	-7.407425	3.529735	1.375732	0.802734	0.728516
25141		-0.823972	-5.153593	-8.095162	1.858023	-7.439218	3.882946	1.479980	0.761719	0.606689
25142		-2.597685	-5.895288	-7.395036	2.000421	-7.350969	4.137944	1.571533	0.709229	0.482910
25143		-4.740273	-7.702572	-6.414655	2.155296	-7.115730	4.250784	1.656494	0.652344	0.361328
25144		-6.509648	-8.939572	-5.658920	2.045296	-6.738014	4.146874	1.718994	0.597412	0.241943
25145		-7.211756	-8.778705	-6.172971	1.558241	-6.156077	4.115774	1.773193	0.522217	0.129639
25146		-7.360777	-6.918490	-6.235502	0.664544	-5.341845	4.293535	1.807373	0.449219	0.036865
25147		-10.333997	-2.670959	-6.241688	0.301395	-4.440108	4.016294	1.839111	0.380615	-0.042969
25148		-14.652320	-0.097391	-5.992703	0.063013	-3.698847	2.844344	1.856934	0.331787	-0.105469
25149		-13.011913	-4.122738	-6.531472	-0.458616	-3.035679	1.871670	1.862549	0.300781	-0.161865
25150		-2.758083	-8.982419	-10.594529	-0.426412	-2.356147	0.976393	1.874268	0.285156	-0.194580
25151		9.197466	-13.743116	-12.365375	0.388734	-0.965866	0.029442	1.871826	0.289551	-0.205811
25152		12.585779	-14.660279	-13.358924	0.819383	0.761857	-0.495397	1.873535	0.305176	-0.181885
25153		5.419891	-10.375507	-14.531081	1.209435	2.162505	-0.815979	1.868408	0.322998	-0.127197
25154		-1.381089	-7.631540	-14.350107	2.101680	3.064049	-1.240196	1.864502	0.363037	-0.068848
25155		-2.426705	-10.906100	-9.426517	3.279074	3.485938	-1.741063	1.853760	0.409668	-0.006104
25156		-6.370600	-21.236082	9.614276	4.414156	3.646536	-1.953901	1.831543	0.458252	0.045410
25157		-16.357615	-34.980771	1.418807	4.122968	2.681145	-4.109304	1.802490	0.573730	0.077637
25158		-24.847156	-15.814117	-0.431598	2.246278	3.668360	-6.130382	1.744629	0.679932	0.151855
25159		-37.869957	44.913068	-2.273033	0.625395	4.229300	-2.884730	1.709229	0.728516	0.212158
25160		-10.205553	0.475898	-18.571492	-2.558296	2.122340	-3.012149	1.671631	0.774902	0.279053
25161		-3.136733	-9.805841	-23.511651	-5.682298	2.735391	-2.366898	1.635742	0.778809	0.377930
25162		-2.663994	-12.525872	-22.774725	-2.238788	3.279950	-2.776965	1.582275	0.831787	0.431396
25163		-1.856925	-12.722333	-12.220450	1.891605	3.742242	-3.791831	1.507813	0.911133	0.470947
25164		-3.947154	-26.547219	-12.534781	1.795839	2.468233	-4.200715	1.451416	0.977295	0.479980
25165		-4.930601	-22.024911	-6.464065	0.068886	1.760656	-1.067216	1.418213	0.974609	0.512939
25166		-6.876410	-15.388438	-10.338385	0.346007	1.518017	-1.687974	1.365234	1.011963	0.520508
25167		-6.763340	-13.139657	-8.895540	0.549192	2.265457	-1.831338	1.324707	1.022705	0.546387
25168		-16.743742	-16.657399	-8.611906	0.310308	1.997189	0.441927	1.300781	1.006836	0.553223
25169		-28.005255	-11.692569	-8.545829	0.285227	0.814970	1.327453	1.290527	0.986572	0.551514
25170		-23.797504	-7.549752	-8.059634	-0.045378	0.293624	-0.971049	1.249756	1.001709	0.548584
25171		-15.019569	-9.119244	-8.564876	-0.256283	0.266885	-1.988686	1.213379	1.014893	0.534912
25172		-19.107393	-8.725574	-7.636760	-0.149509	0.411792	-0.476565	1.189697	0.996826	0.530762
25173		-29.814885	-1.945100	-5.640319	-0.298348	0.241532	-0.066825	1.167725	0.987549	0.524414
25174		-30.282011	7.710717	-3.064584	-0.736364	-0.042144	-0.972214	1.150146	0.978516	0.513428
25175		-23.221611	7.597449	-0.694895	-1.188719	-0.243301	-1.086428	1.130371	0.971680	0.500244
25176		-18.728542	3.619481	1.832943	-1.606113	-0.274100	-0.928770	1.113037	0.958008	0.500488
25177		-14.601130	4.371112	4.543513	-1.575169	-0.207034	-0.766415	1.102539	0.942383	0.496338
25178		-13.359743	4.412056	8.005398	-1.457734	-0.027550	-0.172880	1.094482	0.922363	0.501221
25179		-13.211862	3.525877	10.556064	-1.558575	0.143830	-0.043304	1.084229	0.899902	0.503906
25180		-11.695308	0.521964	11.745785	-1.506530	0.558332	-0.318000	1.073486	0.886475	0.517578
25181		-8.499740	-1.696628	11.922649	-0.901018	1.028190	-0.890727	1.055664	0.884033	0.523926
25182		-5.075832	-1.297621	10.862672	-0.191481	1.351097	-1.309374	1.035156	0.894775	0.528076
25183		-2.938844	2.098654	10.604083	0.199499	1.779059	-1.626178	0.999268	0.901123	0.543213
25184		-3.149118	9.376252	10.787557	0.232136	2.282844	-1.940070	0.964844	0.925293	0.557861
25185		-4.482646	11.803509	10.676619	-0.189975	2.747093	-2.393808	0.917236	0.944824	0.583496
25186		-5.095485	9.054733	9.052304	-0.924280	3.152862	-2.778588	0.867432	0.959961	0.622314
25187		-7.604687	7.847616	8.483350	-1.339457	3.606130	-3.054372	0.806641	0.974854	0.663574
25188		-11.069327	9.901301	8.818319	-1.685694	3.907375	-3.312222	0.741211	0.989746	0.724609
25189		-13.107670	10.687422	7.023908	-2.328715	4.009056	-3.380816	0.669922	0.988770	0.783691
25190		-13.757476	9.540273	5.203967	-2.888705	4.002728	-3.248043	0.603027	0.985840	0.833984
25191		-13.641285	8.265353	3.375219	-3.243656	3.895487	-2.996057	0.527832	0.969482	0.897949
25192		-13.181744	7.026854	2.006664	-3.447732	3.795453	-2.688205	0.470459	0.951172	0.961914
25193		-12.730901	5.215556	0.878638	-3.553259	3.674500	-2.349446	0.411377	0.919189	1.019531
25194		-12.537431	3.212753	-0.010666	-3.723207	3.573286	-2.017215	0.345703	0.889648	1.079346
25195		-12.540418	0.605355	-1.332783	-4.128211	3.475361	-1.644341	0.287109	0.844482	1.141846
25196		-13.931228	-4.247858	-6.162472	-4.319592	3.294724	-1.050432	0.235596	0.794922	1.191406
25197		-16.580733	-11.207676	-12.194112	-2.682131	2.614201	-0.301062	0.207275	0.774658	1.224854
25198		-18.913443	-14.159280	-10.611171	-0.671176	2.348409	-0.060955	0.169922	0.762939	1.255615
25199		-17.053592	-12.428904	-9.658275	-0.508866	1.666499	-0.168583	0.147217	0.769531	1.275146
25200		-13.198703	-9.725587	-11.073473	-0.455018	1.043799	0.236481	0.145264	0.762695	1.297363
25201		-10.998773	-9.401196	-12.044712	-0.296762	0.356435	0.979102	0.161133	0.758545	1.315186
25202		-9.334574	-11.067305	-13.554660	0.007530	-0.582341	1.623344	0.189941	0.763184	1.330811
25203		-7.090293	-13.114164	-14.312103	0.583940	-1.507827	2.089969	0.238525	0.772705	1.337402
25204		-4.993563	-13.707511	-14.685473	1.096590	-2.288252	2.434268	0.302490	0.791016	1.339600
25205		-3.864564	-12.881867	-14.158255	1.511356	-2.915884	2.494821	0.384277	0.812012	1.326172
25206		-3.006264	-10.945775	-12.992800	1.819870	-3.566598	2.531724	0.468262	0.830811	1.308594
25207		-1.799011	-8.377393	-11.579772	2.159054	-4.183022	2.615105	0.570313	0.849609	1.275635
25208		-0.406946	-6.314332	-10.597351	2.683434	-4.698625	2.754686	0.672119	0.873047	1.227295
25209		0.427897	-4.781630	-9.055953	3.142334	-5.230524	3.014171	0.782715	0.898682	1.174316
25210		0.087053	-4.862983	-8.190098	3.263752	-5.920004	3.356397	0.904785	0.911133	1.099854
25211		-0.723663	-5.352826	-6.725605	2.962598	-6.563969	3.516276	1.027588	0.910156	1.019043
25212		-0.858123	-4.871585	-5.772387	1.773920	-6.910694	3.514754	1.153320	0.891602	0.929932
25213		-0.497643	-3.684370	-6.969865	0.516780	-7.118564	3.783903	1.271484	0.843994	0.852539
25214		-0.765615	-3.021926	-7.026490	-0.114336	-7.388718	4.238925	1.387695	0.780518	0.753418
25215		-1.199380	-3.549600	-7.071984	-0.756653	-7.609757	4.593569	1.495605	0.706055	0.652100
25216		-1.524936	-5.427451	-7.729468	-1.076868	-7.658955	4.792079	1.601807	0.618164	0.547119
25217		-2.895842	-7.996783	-7.555845	-0.669343	-7.502444	4.861273	1.690186	0.530273	0.426270
25218		-5.348827	-11.148479	-7.741939	-0.104703	-7.123839	4.823369	1.751465	0.450684	0.305176
25219		-8.222134	-13.621874	-8.798522	0.494300	-6.601392	4.672217	1.808838	0.357910	0.186768
25220		-10.875206	-13.890492	-9.923605	0.882826	-6.039985	4.348695	1.842773	0.289307	0.073975
25221		-12.088906	-11.500155	-9.409956	1.095013	-5.365822	3.955523	1.870361	0.213867	-0.027588
25222		-12.492966	-4.016500	-7.782687	1.315032	-4.407890	3.143540	1.879395	0.153809	-0.098633
25223		-12.155099	-0.839367	-6.182942	1.596807	-3.225695	2.357841	1.883545	0.107178	-0.161377
25224		-5.973556	-9.178795	-8.161154	1.620863	-2.385354	1.792246	1.887207	0.073975	-0.202393
25225		4.126842	-12.745484	-8.958828	1.572130	-1.061543	0.831144	1.882813	0.073730	-0.213623
25226		9.461885	-11.303790	-9.627079	1.700151	0.542783	-0.109278	1.889404	0.073975	-0.189209
25227		6.775405	-10.550231	-11.130836	1.862311	1.835216	-0.675573	1.888428	0.098389	-0.143555
25228		3.535194	-11.067679	-11.744330	2.101392	2.845474	-1.401186	1.884521	0.138428	-0.089600
25229		1.607492	-12.183023	-11.127170	2.536450	3.623229	-2.144451	1.880371	0.187256	-0.007080
25230		-1.905669	-12.532498	-11.152115	2.848131	4.069885	-2.550299	1.857666	0.251465	0.070557
25231		-5.541667	-12.453783	1.383677	3.503022	4.203209	-2.799089	1.832520	0.320313	0.143799
25232		-11.857579	-9.243417	19.547647	4.350443	2.724895	-3.620380	1.808838	0.413574	0.163330
25233		-22.833566	0.424173	4.250432	2.903269	2.532009	-3.740335	1.783203	0.495605	0.225098
25234		-41.209387	2.778184	2.260791	0.087170	3.859302	-3.677553	1.739990	0.570801	0.293457
25235		-8.217053	5.384936	-10.026087	-0.740255	2.726885	-4.162913	1.695313	0.630371	0.344482
25236		-8.916401	-3.452645	-20.897096	-1.906049	3.404944	-1.020109	1.670654	0.627930	0.430420
25237		-12.663817	-13.533125	-19.606875	-4.062684	3.036055	-1.645465	1.629395	0.654053	0.491211
25238		0.273512	-19.330045	-18.814892	-0.992156	2.039047	-5.548468	1.558105	0.764648	0.518799
25239		9.027204	-12.891725	-15.772744	3.244265	3.287595	-5.553176	1.482910	0.861816	0.542480
25240		-6.421948	-12.179200	-8.519765	3.299768	3.312335	-1.985146	1.438721	0.903564	0.563232
25241		-13.987745	-15.734485	-5.110764	-0.686171	1.660973	-1.081332	1.402832	0.912109	0.582764
25242		-6.160771	-11.840868	-12.511696	-0.491557	1.001072	-2.673282	1.343262	0.949463	0.596924
25243		-5.040997	-11.618176	-11.068748	-0.446435	2.025210	-1.923880	1.300293	0.959961	0.631592
25244		-18.198667	-18.244887	-10.147128	0.111017	1.808405	0.477307	1.280762	0.946533	0.634033
25245		-29.782352	-11.379440	-7.251638	0.002881	0.545440	0.693337	1.259033	0.935059	0.629639
25246		-20.287547	-9.765219	-8.577827	-0.689641	0.137355	-2.121811	1.215576	0.959229	0.622314
25247		-12.915611	-15.819999	-8.307660	-0.238908	0.157785	-1.921523	1.186279	0.965576	0.615234
25248		-16.797040	-16.904601	-9.475733	0.551988	0.387943	-0.445212	1.161865	0.965332	0.599854
25249		-26.755309	-3.909390	-5.218911	1.141317	0.393399	-0.214453	1.137207	0.967285	0.573242
25250		-30.180485	11.590609	-2.694950	0.510350	0.127814	-0.819628	1.121582	0.967041	0.559814
25251		-23.316129	12.744110	-0.243322	-0.393196	-0.148364	-1.136954	1.097168	0.962402	0.555420
25252		-18.242125	4.963263	0.827805	-1.127833	-0.232353	-1.242633	1.084229	0.955566	0.546631
25253		-15.544976	3.873538	3.303076	-1.388349	-0.178554	-1.456984	1.064209	0.953125	0.546631
25254		-12.533555	5.871226	6.556302	-1.522429	-0.011748	-1.090046	1.048828	0.944092	0.544434
25255		-13.280160	3.843537	8.744670	-1.970192	0.169302	-0.763227	1.036377	0.919434	0.556152
25256		-11.931551	-0.798537	8.756119	-2.176126	0.361850	-0.875582	1.025635	0.912598	0.573730
25257		-8.215175	-3.232960	8.352023	-1.802203	0.724755	-1.103379	1.005859	0.905762	0.589355
25258		-6.479594	-1.870333	8.545858	-1.009973	1.080592	-1.404744	0.978760	0.909912	0.593506
25259		-6.520530	2.508405	9.665393	-0.328709	1.417212	-1.620602	0.954102	0.916260	0.610840
25260		-6.861931	8.422440	11.065568	-0.206180	1.801355	-2.023634	0.919922	0.929199	0.619141
25261		-7.069670	10.007858	11.424983	-0.757036	2.215244	-2.565524	0.874512	0.950928	0.651367
25262		-7.233328	8.653897	9.598149	-1.507003	2.647430	-3.005769	0.822754	0.959473	0.694824
25263		-8.005253	7.693514	7.714844	-2.179689	3.061397	-3.266624	0.762207	0.967529	0.740723
25264		-9.724456	7.841721	7.057089	-2.652428	3.387956	-3.347909	0.697754	0.962402	0.795410
25265		-11.594249	8.711490	5.638593	-3.108191	3.556483	-3.241549	0.635498	0.957275	0.850342
25266		-12.329137	8.383392	4.540551	-3.444830	3.624813	-3.048848	0.569092	0.943115	0.909668
25267		-11.676232	7.061677	3.659071	-3.707373	3.646626	-2.811348	0.503174	0.913574	0.974121
25268		-11.161867	5.720617	2.314976	-3.956138	3.711013	-2.540361	0.441895	0.884033	1.033936
25269		-11.149931	3.386708	1.324955	-3.972009	3.782192	-2.221886	0.369629	0.847656	1.091553
25270		-10.880553	-0.021648	-0.508051	-3.820220	3.814777	-1.746325	0.306396	0.811279	1.142822
25271		-11.909688	-5.481836	-6.160682	-3.326151	3.759427	-0.825011	0.260742	0.781738	1.191895
25272		-15.679296	-12.894059	-11.787831	-1.223284	3.430017	0.264781	0.216553	0.770264	1.213867
25273		-21.593567	-16.764524	-10.902814	0.583675	3.048392	0.588577	0.175537	0.787598	1.228760
25274		-21.018455	-13.410217	-10.042354	0.996981	2.524717	-0.392914	0.138916	0.809326	1.229980
25275		-14.117587	-7.428791	-9.577929	1.370856	1.995178	-0.327802	0.120361	0.829346	1.231689
25276		-11.889578	-4.892444	-9.905466	1.245700	1.339838	1.068714	0.119385	0.851563	1.242188
25277		-12.160515	-7.868444	-11.468155	1.149209	0.387264	1.803627	0.138672	0.871826	1.248291
25278		-10.780164	-13.019804	-12.995136	1.167217	-0.548006	1.803191	0.171387	0.889893	1.254639
25279		-8.138766	-15.466526	-14.304770	1.383448	-1.164628	1.734142	0.206299	0.910400	1.245605
25280		-6.115877	-13.114281	-14.064216	1.905713	-1.491190	1.781702	0.261230	0.935303	1.245361
25281		-4.933864	-8.307623	-11.710998	1.998781	-2.033129	2.178901	0.324707	0.967285	1.233887
25282		-3.630286	-4.851943	-10.043194	1.623271	-2.840891	2.637209	0.406738	0.979248	1.216553
25283		-1.883230	-4.518465	-9.694797	1.400895	-3.653949	3.010520	0.495605	0.986816	1.192627
25284		-0.443952	-5.989745	-9.218511	1.546237	-4.213644	3.268529	0.595947	0.992432	1.164307
25285		0.014957	-6.432152	-7.760553	1.422107	-4.615477	3.440241	0.709961	0.989258	1.127686
25286		-0.074453	-5.946729	-6.869871	1.143124	-5.078351	3.600518	0.817383	0.977051	1.093262
25287		-0.378704	-5.057257	-7.209056	1.084451	-5.665222	3.675201	0.940918	0.960449	1.039307
25288		-0.222176	-4.179760	-5.086342	1.265991	-6.130551	3.683646	1.055664	0.935059	0.968018
25289		1.360065	-3.471651	-5.457281	0.343760	-6.112435	3.584805	1.175537	0.894043	0.905762
25290		2.567058	-5.318818	-7.400428	0.073717	-6.597780	4.506448	1.295898	0.846436	0.823975
25291		2.264672	-7.902552	-7.743619	0.385441	-6.778809	4.945609	1.410400	0.771973	0.733887
25292		2.897384	-8.305682	-7.672164	0.359831	-6.885214	4.884453	1.513672	0.704102	0.632568
25293		3.180074	-6.603997	-7.313864	0.353086	-6.875888	4.897476	1.603760	0.629395	0.529053
25294		0.472256	-5.711605	-7.513124	0.476662	-6.671877	5.070971	1.682861	0.545654	0.416992
25295		-3.441605	-7.360069	-7.436909	0.803008	-6.436301	5.215466	1.744141	0.464111	0.304932
25296		-5.668509	-10.290855	-8.050537	0.863566	-6.157159	5.251852	1.805908	0.375732	0.199463
25297		-7.225158	-11.603518	-9.290066	0.581509	-5.666539	5.077202	1.838867	0.275879	0.105225
25298		-9.816213	-10.527710	-7.782783	0.160785	-4.872876	4.419127	1.862061	0.200439	0.016846
25299		-14.278560	-6.639055	-5.157540	-0.045315	-3.945515	2.816004	1.876953	0.162842	-0.052734
25300		-15.161397	0.808362	-5.106481	-0.714259	-3.072714	1.252730	1.884521	0.138428	-0.102783
25301		-8.281341	-7.073345	-6.289313	-1.244392	-2.298787	0.842230	1.891846	0.122803	-0.139648
25302		3.580480	-13.880982	-9.076681	-1.131006	-1.061311	0.335769	1.887451	0.120605	-0.139648
25303		12.231985	-16.751227	-11.689577	-0.615073	0.582430	-0.528063	1.889160	0.136230	-0.113770
25304		9.631178	-18.101259	-15.963597	-0.084184	2.130132	-0.984409	1.890381	0.162842	-0.054932
25305		0.082429	-16.599997	-16.952367	1.150123	3.397755	-1.389961	1.877686	0.200684	0.019043
25306		-3.088689	-15.602361	-8.841246	2.935827	3.798553	-2.387434	1.854980	0.264893	0.087891
25307		-11.041488	-17.040824	15.650641	4.421744	3.389923	-3.217985	1.844727	0.351563	0.129639
25308		-20.818462	-11.613467	0.031165	3.707369	2.601631	-5.330006	1.792725	0.478027	0.172607
25309		-50.175789	24.649241	3.788996	2.948654	4.020888	-3.406319	1.760986	0.551025	0.239014
25310		-21.634788	12.156080	-0.709184	-0.974637	2.863136	-3.769999	1.723145	0.599609	0.296875
25311		-3.740132	-2.926329	-17.164619	-2.502923	2.863144	-1.749588	1.698242	0.610352	0.367188
25312		-5.290501	-10.556142	-19.608427	-4.250175	2.869161	-1.939388	1.659180	0.638916	0.438965
25313		5.697232	-21.354474	-20.956519	-2.536563	2.459152	-5.161038	1.588135	0.740479	0.484375
25314		13.382475	-20.791338	-15.831621	3.722793	3.525399	-5.501349	1.517334	0.835449	0.514648
25315		-4.981927	-10.006173	-4.019816	1.871731	3.624689	-1.991801	1.469482	0.861572	0.551270
25316		-12.978515	-14.912655	-10.077394	-0.585025	1.759928	-0.733469	1.440186	0.870361	0.572998
25317		-8.336321	-16.306231	-10.491557	-0.551505	1.401357	-1.924760	1.387451	0.903076	0.600342
25318		-8.837346	-16.256575	-11.871899	-0.747717	2.152500	-1.682677	1.351563	0.907227	0.624268
25319		-21.216761	-17.437118	-12.005463	0.067021	1.860794	0.826959	1.324951	0.900146	0.637695
25320		-31.061040	-10.625824	-7.321501	0.590343	0.669347	0.879087	1.300781	0.891113	0.633301
25321		-20.375347	-9.220168	-8.095058	-0.659606	0.369679	-2.157147	1.261719	0.919434	0.625732
25322		-12.191830	-14.215047	-8.168624	-0.300479	0.349443	-2.038809	1.223633	0.925781	0.620850
25323		-17.233097	-13.841954	-7.450846	0.010814	0.480741	-0.268548	1.201660	0.914551	0.616699
25324		-29.656365	-2.092527	-5.016787	0.070581	0.379671	0.388380	1.186523	0.903076	0.599365
25325		-33.031221	11.798629	-2.167582	-0.446924	0.124616	-0.614002	1.164551	0.896240	0.597168
25326		-23.069956	10.224092	-0.231883	-1.286059	-0.110610	-1.320615	1.151367	0.893799	0.590576
25327		-17.864658	3.278648	1.718309	-1.652832	-0.170989	-1.034822	1.131592	0.886963	0.592773
25328		-14.752310	2.624787	4.334333	-1.614706	-0.091002	-0.959411	1.118652	0.873535	0.586426
25329		-12.357755	3.759671	7.934344	-1.423784	0.045231	-0.477763	1.112793	0.853516	0.591309
25330		-13.128698	2.377353	10.154072	-1.516518	0.187004	-0.191143	1.100098	0.833252	0.589355
25331		-11.622601	-0.337998	10.735373	-1.520046	0.496934	-0.369089	1.087158	0.824219	0.604980
25332		-8.083876	-1.681952	10.710899	-0.986677	0.987871	-0.814764	1.069580	0.817383	0.609619
25333		-5.365738	-1.041187	9.638716	-0.255843	1.317445	-1.259190	1.044434	0.828125	0.615723
25334		-3.684899	1.540918	9.612503	0.139241	1.632824	-1.550279	1.008301	0.841064	0.630615
25335		-4.163692	7.816580	10.499076	0.058461	2.002169	-1.894514	0.983154	0.854248	0.643311
25336		-4.538851	11.200412	9.949129	-0.420810	2.395380	-2.444066	0.937744	0.878174	0.671143
25337		-4.673812	9.409580	8.544261	-1.193454	2.860666	-2.929247	0.885742	0.893311	0.710205
25338		-6.379387	7.166377	7.773189	-1.772199	3.342265	-3.166913	0.824951	0.903809	0.755859
25339		-9.177542	7.609487	7.547797	-2.111651	3.673195	-3.321407	0.762207	0.911865	0.805908
25340		-11.603746	8.228507	6.314768	-2.529133	3.869624	-3.387935	0.695068	0.913330	0.860596
25341		-12.094743	6.618113	4.901304	-2.784269	3.914525	-3.271051	0.626221	0.908203	0.913086
25342		-11.581869	5.212762	3.696945	-2.829036	3.917410	-3.017974	0.548584	0.896240	0.974609
25343		-11.142162	4.509672	3.262299	-2.779022	3.944216	-2.684998	0.482178	0.882080	1.018799
25344		-10.928595	3.674391	2.068360	-2.826222	3.913117	-2.306887	0.416016	0.861328	1.069580
25345		-11.117186	1.257085	1.013453	-2.859154	3.889828	-1.829086	0.352295	0.831787	1.125000
25346		-12.104510	-3.005779	-1.872067	-2.960835	3.816649	-1.117915	0.295410	0.802246	1.173828
25347		-14.742618	-8.255027	-6.220551	-2.520543	3.724489	-0.235347	0.242920	0.774902	1.211670
25348		-19.522405	-14.048401	-11.069905	-1.381521	3.176251	0.675260	0.214111	0.770264	1.238037
25349		-21.671706	-15.168331	-11.150793	0.562016	2.604637	0.676347	0.182617	0.781006	1.244385
25350		-15.456551	-7.188865	-6.432053	0.904170	2.279230	-0.133331	0.143799	0.798340	1.256836
25351		-11.280526	-0.938961	-6.459312	-0.086227	1.745431	0.574296	0.137207	0.796143	1.276611
25352		-10.892112	-1.198358	-8.137479	-0.253483	1.095095	1.257654	0.135010	0.795898	1.301025
25353		-10.652032	-6.466993	-10.233628	-0.240785	0.159902	1.616908	0.155273	0.793945	1.320801
25354		-10.241221	-12.175750	-13.401040	-0.034976	-0.977093	1.978541	0.199707	0.796631	1.321045
25355		-9.395713	-15.585902	-14.888127	0.942696	-1.661057	2.180339	0.248047	0.817139	1.336426
25356		-8.560042	-15.436358	-13.968138	2.058296	-2.225084	2.203900	0.313721	0.846924	1.316162
25357		-7.692823	-12.409904	-12.186169	2.851834	-2.988597	2.504936	0.390137	0.889893	1.302246
25358		-6.999081	-8.549416	-9.688812	3.356520	-3.651586	2.958781	0.484619	0.928955	1.262207
25359		-6.155748	-5.811056	-8.158980	3.234282	-4.342742	3.197478	0.588379	0.954590	1.226807
25360		-5.194068	-5.593311	-8.588637	2.822082	-5.066249	3.337504	0.710205	0.980225	1.176270
25361		-4.347213	-7.158725	-10.024582	3.022640	-5.581651	3.390960	0.827881	0.992676	1.106201
25362		-2.962237	-6.010960	-7.611342	2.978252	-5.939727	3.515856	0.946045	1.000732	1.033936
25363		-1.727194	-3.959553	-6.389815	2.095705	-6.304914	3.752900	1.074219	0.977539	0.967041
25364		-1.053126	-2.940128	-6.860520	1.523696	-6.505695	4.141196	1.191162	0.952148	0.882324
25365		-2.331528	-3.879900	-6.905596	1.336268	-6.662307	4.719298	1.320313	0.904541	0.787354
25366		-4.354186	-6.004112	-6.451165	1.288337	-6.956497	5.075861	1.447754	0.843506	0.686035
25367		-4.732531	-6.335073	-5.062731	1.082434	-7.121592	5.087767	1.552979	0.778076	0.575928
25368		-3.935379	-5.030769	-5.588201	0.521768	-7.120933	4.901351	1.654541	0.694580	0.468262
25369		-3.550181	-5.442751	-4.445203	0.251459	-6.911518	5.001741	1.740479	0.613037	0.349609
25370		-5.096104	-8.300082	-4.661833	-0.373919	-6.548748	5.150503	1.811768	0.507080	0.244629
25371		-5.038621	-10.400616	-6.872189	-1.083489	-6.084475	5.183283	1.862549	0.411865	0.137207
25372		-5.373041	-9.768873	-9.098702	-1.340694	-5.398600	5.061501	1.906738	0.310059	0.047363
25373		-9.340191	-9.886886	-10.122504	-1.048606	-4.682722	4.259610	1.934326	0.232422	-0.038574
25374		-12.887827	-10.026408	-10.545878	-1.372900	-4.105318	2.498300	1.940674	0.187988	-0.110352
25375		-8.775741	-9.521143	-11.181470	-1.341469	-3.387171	1.095850	1.952637	0.170410	-0.175781
25376		1.149122	-10.187590	-13.394842	-0.930495	-2.642883	0.482771	1.957031	0.168213	-0.221924
25377		10.114807	-13.671121	-14.154163	-0.308267	-0.987162	0.097946	1.961670	0.163818	-0.219727
25378		10.371315	-13.980830	-15.464243	0.138568	0.704904	-0.105573	1.963623	0.174805	-0.187012
25379		5.616753	-13.907990	-18.610844	1.135062	1.901064	-0.497132	1.967041	0.197266	-0.145508
25380		1.691867	-15.563448	-17.647205	2.921139	2.879634	-0.974207	1.963867	0.219482	-0.088867
25381		-0.701069	-17.896869	-7.043725	4.533718	3.516553	-1.610148	1.953125	0.263672	-0.021729
25382		-9.282823	-23.436786	16.619495	5.032791	3.145120	-2.264905	1.943115	0.348145	0.026855
25383		-23.263471	-33.782259	-5.545966	4.819537	2.433488	-4.860523	1.906982	0.472412	0.080811
25384		-48.973245	38.615525	-0.681821	2.701224	4.839337	-4.971279	1.872314	0.556641	0.151367
25385		-30.319105	22.477238	7.615632	-2.098143	2.095117	-3.274510	1.845215	0.620850	0.211182
25386		-4.499871	-8.345489	-20.540847	-3.828487	2.729729	-2.697589	1.812988	0.645020	0.291992
25387		-3.783296	-14.666497	-21.324634	-5.740273	2.762163	-2.641517	1.771240	0.680176	0.381104
25388		1.010938	-17.989525	-25.902756	-2.682722	3.087280	-4.628305	1.705566	0.761963	0.449219
25389		4.184082	-17.973774	-18.273238	3.054491	3.893530	-4.473422	1.641602	0.856934	0.477539
25390		-2.818843	-17.634176	-9.009862	3.369497	2.832017	-3.383802	1.584961	0.929688	0.490723
25391		-4.965179	-18.266384	-4.255966	0.180303	1.765627	-1.411933	1.549072	0.938232	0.516846
25392		-6.058451	-13.359716	-9.915509	-0.092264	1.649635	-1.957415	1.498291	0.975586	0.539795
25393		-8.433602	-7.441085	-7.943963	0.030057	2.503055	-1.834054	1.448486	0.995117	0.576416
25394		-17.821665	-10.536525	-6.873043	-0.621119	1.875559	-0.181673	1.415283	0.985840	0.596436
25395		-25.424001	-8.769598	-5.994949	-0.767987	0.915209	0.460839	1.400146	0.974365	0.609863
25396		-22.400963	-11.558052	-6.931473	-0.893284	0.645222	-1.428366	1.359375	0.989502	0.613525
25397		-17.569575	-17.367311	-6.767500	-0.646258	0.611508	-1.879443	1.325195	1.009277	0.617188
25398		-17.388872	-14.128758	-6.990208	-0.246785	0.682177	-1.005880	1.287354	1.008789	0.614746
25399		-24.139185	-2.602175	-5.055556	0.120905	0.695744	-0.210468	1.265381	0.999756	0.608398
25400		-27.854743	5.947386	-2.814334	-0.190630	0.481563	-0.386589	1.242920	0.999512	0.610352
25401		-22.943465	6.563495	-1.981584	-0.639398	0.357337	-1.176791	1.220947	0.994873	0.603760
25402		-17.944236	3.809089	-0.293131	-0.980315	0.283615	-1.271858	1.191895	0.994385	0.605957
25403		-15.416746	3.316720	1.962982	-1.083875	0.231028	-1.472281	1.165283	0.989746	0.601318
25404		-13.407378	4.172118	4.168948	-1.213294	0.241445	-1.212197	1.145508	0.985107	0.607910
25405		-12.929474	2.518752	7.049499	-1.250318	0.308768	-0.695765	1.134521	0.978271	0.610352
25406		-11.619550	-0.180172	6.933493	-1.421064	0.466417	-0.671754	1.117188	0.967041	0.623779
25407		-9.388615	-2.435243	6.921880	-1.350581	0.821565	-0.805700	1.097412	0.957764	0.634766
25408		-7.675466	-3.017916	7.102030	-0.901273	1.132076	-1.002891	1.072998	0.955322	0.641357
25409		-7.148890	-0.448889	8.160945	-0.182638	1.407031	-1.301271	1.050049	0.968506	0.645264
25410		-6.917151	3.274305	9.942006	0.454468	1.770064	-1.655700	1.011719	0.981445	0.660156
25411		-6.517716	6.624833	10.595675	0.551862	2.196964	-2.036105	0.968262	1.007568	0.668213
25412		-5.913431	7.990925	9.608804	0.101604	2.645572	-2.390662	0.920654	1.024902	0.691650
25413		-6.412360	7.816239	8.082547	-0.562606	3.120757	-2.597456	0.864258	1.042236	0.732666
25414		-8.552535	8.786520	7.529664	-1.135343	3.550140	-2.792033	0.799072	1.050293	0.776123
25415		-11.317189	10.405352	7.361891	-1.735608	3.779079	-3.004537	0.733887	1.062988	0.828369
25416		-12.939002	11.354417	5.545886	-2.564699	3.828796	-3.120463	0.656006	1.055420	0.889893
25417		-13.076900	10.039665	3.586222	-3.263468	3.759921	-3.083694	0.587402	1.039063	0.951660
25418		-12.463433	7.568779	1.888805	-3.656173	3.676924	-2.870548	0.516846	1.016113	1.017822
25419		-12.330716	5.946415	0.089319	-3.825121	3.625584	-2.544193	0.453369	0.988770	1.079834
25420		-12.530085	4.143467	-0.306024	-3.878862	3.593593	-2.179382	0.387695	0.952393	1.144287
25421		-12.747113	0.975536	-1.527293	-4.353286	3.581100	-1.684884	0.332031	0.895996	1.211426
25422		-14.080387	-4.155545	-5.292632	-4.774389	3.584498	-0.867767	0.271484	0.842041	1.280762
25423		-17.865637	-10.474666	-10.646343	-4.002286	2.982119	-0.029013	0.233398	0.792480	1.316895
25424		-22.706515	-15.240741	-13.450030	-1.341938	2.507803	0.326152	0.204590	0.785645	1.345703
25425		-21.291448	-11.259059	-8.535022	-0.298249	2.062403	-0.281012	0.173828	0.776367	1.374268
25426		-13.779443	-5.108891	-8.247266	-1.133873	1.449117	-0.292580	0.160889	0.765137	1.400879
25427		-10.069814	-4.918931	-11.121863	-1.287775	0.722943	0.654454	0.163818	0.745117	1.425781
25428		-9.157999	-8.489477	-13.213668	-0.670534	-0.172415	1.562120	0.190918	0.738770	1.437012
25429		-8.340680	-11.787147	-13.970729	-0.033558	-1.048083	1.978068	0.232910	0.743652	1.452637
25430		-6.980974	-13.502823	-14.375167	0.700983	-1.918552	2.095749	0.290771	0.748535	1.455078
25431		-5.585778	-12.384594	-13.772923	1.550798	-2.443298	1.988598	0.358887	0.773926	1.446045
25432		-4.377111	-9.315317	-12.307727	1.992613	-2.981573	2.033821	0.431396	0.803711	1.432373
25433		-3.128115	-6.407337	-10.229841	2.042335	-3.615221	2.352771	0.531250	0.820313	1.408447
25434		-1.901476	-4.829072	-9.145681	2.021302	-4.304610	2.770804	0.630615	0.845703	1.377441
25435		-1.097443	-5.106903	-9.062159	2.333043	-4.852212	3.086705	0.741943	0.853760	1.327393
25436		-1.210367	-6.063378	-8.355074	2.716610	-5.230707	3.277060	0.866455	0.866211	1.283691
25437		-1.961994	-7.299103	-8.621377	2.774688	-5.827541	3.473725	0.988770	0.874268	1.204834
25438		-1.950066	-7.326886	-7.191285	2.885484	-6.352272	3.689894	1.116211	0.871094	1.119629
25439		-0.887361	-6.182413	-6.807196	2.162908	-6.318954	3.780381	1.237305	0.854736	1.037109
25440		-0.438763	-5.496301	-8.188504	1.746672	-6.552882	4.289607	1.366211	0.815918	0.939697
25441		-1.444111	-6.185439	-7.953641	1.852821	-6.742229	4.731545	1.484619	0.759277	0.838135
25442		-1.835074	-7.011537	-7.219675	1.711736	-6.943377	4.892246	1.598389	0.702637	0.714600
25443		-1.625124	-6.940822	-7.224144	1.675025	-7.048003	4.902131	1.697021	0.634766	0.593506
25444		-2.250725	-6.353540	-4.945739	1.586734	-6.821257	4.895075	1.782959	0.555664	0.465820
25445		-4.012734	-8.181795	-5.987165	1.245087	-6.718916	5.034616	1.851074	0.471924	0.336182
25446		-5.202639	-10.642600	-6.806440	0.963574	-6.430510	4.970147	1.908447	0.376709	0.224365
25447		-5.736530	-9.899084	-6.774055	0.024179	-6.001323	4.736421	1.952393	0.281494	0.103516
25448		-7.580435	-5.010752	-5.251440	-1.220926	-5.278774	4.156512	1.975830	0.201660	0.012939
25449		-13.359697	-1.515147	-4.051533	-2.003287	-4.457798	2.954462	1.991455	0.144043	-0.066895
25450		-14.797261	-5.489956	-5.202526	-2.660885	-3.945443	1.659330	1.999268	0.115234	-0.143311
25451		-6.944438	-10.829987	-7.555260	-2.553644	-3.217265	0.767765	2.008789	0.101807	-0.202393
25452		4.236386	-13.444199	-9.533523	-2.196640	-1.876250	0.190672	2.013428	0.097412	-0.217773
25453		8.657018	-14.207362	-11.462056	-1.570088	-0.252717	-0.164896	2.010986	0.106445	-0.211426
25454		6.224870	-14.494538	-13.981585	-0.497789	1.056982	-0.594386	2.012207	0.128662	-0.176758
25455		4.377725	-14.658530	-15.564962	1.093670	2.186963	-1.290734	2.013184	0.162109	-0.122314
25456		3.007371	-13.674517	-14.777983	2.651386	2.991901	-1.875040	2.004395	0.210938	-0.051025
25457		-1.564435	-11.726281	-12.831111	3.733406	3.558750	-1.899613	1.988770	0.264160	0.018066
25458		-7.283436	-12.332097	11.548976	5.393960	3.687073	-2.146560	1.975098	0.330811	0.069336
25459		-17.029982	-16.937535	9.073529	4.802513	2.259722	-3.498381	1.950684	0.437256	0.112793
25460		-32.064298	-5.771282	-8.616933	3.281860	3.175645	-4.494605	1.922607	0.523926	0.176514
25461		-39.732303	34.131675	0.647997	-0.030259	3.422900	-3.154005	1.884033	0.594727	0.229736
25462		-6.668926	3.884113	-19.479701	-2.418842	1.981873	-2.741342	1.858398	0.623291	0.297119
25463		-8.328327	-7.595880	-21.508824	-4.037604	3.082382	-1.347250	1.829102	0.629639	0.389404
25464		-8.991981	-13.748102	-20.270868	-3.975312	3.138511	-3.338375	1.770508	0.700195	0.466553
25465		-4.380008	-12.943395	-17.667769	0.642066	3.259303	-5.683358	1.687744	0.817383	0.498535
25466		-3.968199	-13.760398	-9.023805	1.906734	2.912630	-5.176716	1.628906	0.894531	0.531494
25467		-4.210789	-18.878725	-4.409863	-0.128351	1.619674	-1.645805	1.599365	0.905273	0.555420
25468		-2.809771	-23.610882	-8.961827	-0.262484	1.104707	-1.258102	1.555664	0.938232	0.565186
25469		-0.004044	-25.150164	-8.485107	0.129471	1.708118	-1.857568	1.510254	0.955566	0.595459
25470		-9.045184	-21.200204	-7.819260	0.105333	2.126789	0.056533	1.479248	0.950928	0.619629
25471		-21.512649	-13.789579	-8.367820	0.489533	1.373705	0.972571	1.459473	0.941650	0.615234
25472		-31.317758	-4.338396	-8.757160	0.350913	0.492745	0.830859	1.444092	0.934814	0.608887
25473		-20.849635	-5.597206	-7.973051	-0.448018	0.060255	-1.356336	1.407959	0.947754	0.603760
25474		-15.646305	-11.263788	-8.524071	-0.266154	0.269685	-1.281995	1.378906	0.951904	0.592529
25475		-23.745003	-8.572949	-6.261157	-0.189191	0.210911	0.094534	1.361084	0.947266	0.585938
25476		-33.229875	4.448773	-2.341917	-0.330866	-0.000696	-0.247414	1.336914	0.938232	0.572754
25477		-30.007575	13.804516	1.044160	-1.021369	-0.310095	-1.120025	1.316895	0.937988	0.570557
25478		-19.827432	7.243139	2.654713	-1.936747	-0.364477	-1.022487	1.299805	0.919922	0.564209
25479		-13.940506	6.271083	4.705945	-2.122253	-0.240878	-0.658318	1.282471	0.906494	0.564453
25480		-13.195537	7.006484	7.334195	-2.191943	0.012200	-0.267855	1.279053	0.877441	0.578369
25481		-13.075721	4.264738	10.284381	-2.218531	0.149564	-0.215192	1.260010	0.854980	0.578857
25482		-10.760572	1.167866	11.200318	-2.153808	0.338340	-0.314267	1.247070	0.843750	0.592285
25483		-7.797375	-2.792047	11.197447	-1.524086	0.899806	-0.767891	1.229248	0.839111	0.607666
25484		-4.001519	-3.718469	11.144720	-0.587523	1.502288	-1.277509	1.200195	0.843262	0.625000
25485		-1.848915	-0.977201	10.352768	0.103794	1.984620	-1.692309	1.170410	0.863037	0.633301
25486		-2.753547	3.133306	8.859263	0.117769	2.367568	-1.995124	1.124512	0.893555	0.660889
25487		-2.912908	7.294347	9.142907	-0.177057	2.709301	-2.358531	1.072754	0.906494	0.688965
25488		-4.967488	11.210228	8.558589	-0.927958	3.119536	-2.812907	1.018311	0.925781	0.734375
25489		-7.694900	10.703622	9.256107	-1.781371	3.487821	-3.203772	0.950684	0.940674	0.790771
25490		-9.538620	10.535839	8.722155	-2.424952	3.729544	-3.489488	0.881104	0.950928	0.849609
25491		-10.648189	10.140504	7.045052	-2.993191	3.939572	-3.640495	0.800781	0.950195	0.913086
25492		-10.601174	6.992160	5.303872	-3.452252	4.085493	-3.466797	0.725342	0.940430	0.979004
25493		-10.360871	4.153092	3.543213	-3.484959	4.151708	-3.046405	0.656982	0.917480	1.049805
25494		-10.772147	2.182270	2.440464	-3.155142	4.168804	-2.596343	0.581787	0.898682	1.107178
25495		-11.120082	0.965312	1.237024	-2.726769	4.131581	-2.149365	0.513428	0.877930	1.157959
25496		-11.550072	-0.250911	0.783679	-2.252297	4.059194	-1.710120	0.442627	0.861572	1.201904
25497		-12.116139	-1.614365	0.275107	-1.941960	3.939696	-1.377175	0.378906	0.838623	1.248291
25498		-13.068613	-4.605231	-2.987271	-1.915162	3.799270	-0.932135	0.319092	0.822510	1.288086
25499		-15.498139	-9.853144	-8.765101	-1.229373	3.503911	-0.262840	0.268066	0.815186	1.314453
25500		-19.305431	-14.742518	-11.234749	0.269419	2.952934	0.440469	0.238525	0.828369	1.329346
25501		-19.229410	-13.768284	-10.231400	0.770871	2.341831	0.276716	0.208984	0.843506	1.337646
25502		-14.057002	-8.250192	-9.945230	0.627687	1.774923	0.186998	0.193115	0.847900	1.363770
25503		-11.497785	-4.960013	-10.459419	0.338321	1.217401	1.021481	0.186279	0.854492	1.365967
25504		-10.202165	-5.103878	-11.082027	0.236210	0.412329	1.473187	0.208496	0.856934	1.379150
25505		-8.002699	-7.058725	-11.957611	0.098683	-0.479402	1.602661	0.234863	0.865967	1.398926
25506		-5.818673	-8.848351	-12.846283	0.277490	-1.282462	1.751299	0.284180	0.862061	1.403809
25507		-4.405843	-9.347381	-13.008708	0.664528	-1.914383	1.895734	0.346191	0.869385	1.401611
25508		-3.622643	-8.524638	-12.180778	1.073737	-2.507185	2.074724	0.410400	0.885742	1.390625
25509		-3.106173	-6.606549	-10.172398	1.163149	-3.180820	2.343092	0.492432	0.897705	1.379883
25510		-2.520064	-4.976811	-9.183342	0.902396	-3.952379	2.655851	0.595215	0.896729	1.362793
25511		-1.866845	-5.137133	-8.929250	1.010545	-4.594018	2.909902	0.697998	0.893311	1.328125
25512		-1.468964	-6.796929	-8.644235	1.294844	-5.123108	3.023071	0.811768	0.892334	1.291504
25513		-1.118328	-7.788851	-7.989058	1.613607	-5.569531	3.022389	0.923340	0.891357	1.228271
25514		-1.012958	-7.357802	-6.838875	1.662391	-5.895241	3.085971	1.049072	0.876953	1.169922
25515		-1.145698	-6.347130	-6.084460	1.463924	-6.196832	3.315192	1.172363	0.860596	1.084961
25516		-1.592259	-5.496095	-6.379573	1.203224	-6.476188	3.579530	1.287354	0.830566	1.002686
25517		-1.669757	-5.175004	-7.336963	1.190246	-6.775685	3.799786	1.407471	0.789795	0.905273
25518		-1.653403	-5.099909	-7.707612	1.403003	-6.947173	4.075917	1.516113	0.748535	0.801025
25519		-2.405577	-5.321337	-7.258839	1.564529	-6.966251	4.412889	1.623779	0.685303	0.679932
25520		-4.037370	-6.284465	-6.496713	1.647214	-6.879888	4.771241	1.718018	0.617188	0.558838
25521		-6.074730	-7.166493	-5.381127	1.817482	-6.687975	4.946858	1.794922	0.535645	0.433350
25522		-8.073671	-7.043909	-4.473223	1.769093	-6.294212	4.884327	1.856201	0.454102	0.312500
25523		-9.021877	-8.019936	-4.640117	1.623741	-5.784646	4.859153	1.910645	0.374512	0.197998
25524		-8.038474	-9.398366	-5.001576	1.444041	-5.134027	4.801424	1.943604	0.276855	0.103516
25525		-8.218172	-7.031503	-5.485060	1.224440	-4.247356	4.316650	1.971191	0.201660	0.021729
25526		-11.432821	-5.229183	-4.254948	1.249421	-3.435938	3.325427	1.987305	0.137207	-0.040283
25527		-10.939169	-7.726014	-4.603093	0.857534	-2.886098	2.360633	1.990967	0.101563	-0.098877
25528		-2.721129	-11.370884	-6.493935	0.803684	-2.197099	1.258961	1.991943	0.079346	-0.135986
25529		7.345207	-12.020400	-7.268247	0.817839	-1.025063	0.210519	2.009521	0.083984	-0.146973
25530		8.496212	-9.375147	-8.168817	0.453828	0.502386	-0.258672	2.009277	0.090820	-0.122803
25531		2.136106	-7.981991	-10.013681	0.257950	1.729483	-0.776148	2.005615	0.121826	-0.079590
25532		-1.118524	-9.292668	-9.612405	0.755165	2.497734	-1.558533	2.004395	0.157471	-0.018799
25533		-4.260518	-15.799974	-8.026890	1.573929	3.342360	-1.989181	1.988770	0.208496	0.063721
25534		-10.237535	-30.177684	-3.871397	3.289516	4.367764	-3.214205	1.960205	0.312744	0.148926
25535		-18.746111	-26.201191	-4.277233	3.411230	4.373944	-5.947012	1.914063	0.457031	0.229004
25536		-33.484205	31.697446	-0.326175	3.073357	4.662062	-4.737462	1.875244	0.534424	0.292969
25537		-34.797729	11.610970	4.096068	-0.861062	2.337645	-2.924027	1.843506	0.603027	0.339355
25538		-5.385427	-9.483912	-20.295843	-3.400164	1.871750	-3.731549	1.810791	0.642822	0.395508
25539		17.194762	-17.745130	-25.568235	-5.544919	0.490342	-4.446766	1.762939	0.722412	0.439697
25540		24.736712	-24.648150	-31.764297	0.352501	3.567788	-3.422504	1.707275	0.770752	0.512939
25541		-6.623584	-17.355833	-10.256448	4.663004	5.602467	-1.175527	1.640137	0.834473	0.561768
25542		-21.704324	-1.755124	-1.646455	1.001732	2.308312	-3.194440	1.593750	0.876465	0.589111
25543		-17.728483	-6.849616	-11.461536	-1.074913	1.551371	-1.544424	1.559570	0.895996	0.614746
25544		-14.261155	-12.544633	-8.424202	-0.613805	1.242627	-1.423278	1.520752	0.915527	0.638428
25545		-13.549135	-22.643275	-12.315219	-1.171336	1.149625	-1.724404	1.477783	0.930664	0.650879
25546		-16.461526	-27.581924	-10.983545	0.548769	1.016141	-0.484362	1.450684	0.939453	0.644043
25547		-18.887885	-17.150594	-8.911484	1.027837	0.637992	-0.381316	1.423340	0.952393	0.630371
25548		-17.928709	-7.474049	-8.193001	0.451407	0.319267	-1.609573	1.379883	0.978760	0.622803
25549		-13.966529	-4.547770	-8.024932	-0.045536	0.204799	-1.741681	1.345947	0.993896	0.613281
25550		-19.503032	-4.021222	-6.634405	-0.131704	0.276184	0.113450	1.335449	0.976074	0.609375
25551		-31.177184	-0.006201	-4.313873	-0.475335	0.012344	0.710120	1.322998	0.953613	0.592285
25552		-31.304707	6.289545	-2.877782	-1.055366	-0.305090	-0.926729	1.293945	0.955566	0.581055
25553		-21.783500	6.782749	-0.588552	-1.651607	-0.471387	-1.668251	1.269775	0.946289	0.581055
25554		-15.862468	5.395997	1.702501	-2.096879	-0.470544	-1.198635	1.256836	0.932861	0.579102
25555		-12.769687	4.965343	3.609929	-2.224184	-0.359193	-0.697342	1.242188	0.910400	0.588379
25556		-12.665162	2.214542	5.465042	-2.204235	-0.205910	-0.250427	1.236084	0.892578	0.599854
25557		-10.714095	-0.234675	6.873523	-2.042823	-0.165011	-0.179962	1.228027	0.870117	0.593750
25558		-7.681642	-3.364732	7.364301	-1.663119	0.197384	-0.185865	1.217529	0.854492	0.602783
25559		-5.961015	-5.924985	10.736114	-0.649754	0.842702	-0.465597	1.188477	0.856445	0.604736
25560		-6.770781	-5.047474	11.050846	0.435199	1.416259	-1.125820	1.163574	0.864990	0.597900
25561		-6.391419	-1.882739	9.528621	1.214280	1.890840	-1.669915	1.131104	0.893555	0.605713
25562		-4.691319	2.167030	7.541518	1.083488	2.208399	-1.886764	1.090332	0.913330	0.618164
25563		-3.569941	7.502424	7.607787	0.384915	2.437741	-2.074487	1.053467	0.937256	0.639404
25564		-4.078849	15.917948	8.516733	-0.638085	2.756190	-2.595208	0.992676	0.954590	0.678467
25565		-8.061146	17.729327	9.561096	-1.928213	3.139209	-3.274191	0.938477	0.967285	0.724121
25566		-9.084545	12.237940	9.380671	-2.880780	3.366332	-3.709144	0.869141	0.975342	0.787354
25567		-9.020061	9.924686	8.225485	-3.351296	3.753764	-3.929973	0.791016	0.974609	0.848633
25568		-9.849458	8.138585	6.215416	-3.757490	4.065363	-3.767852	0.706299	0.967041	0.923096
25569		-10.476210	4.411473	4.351640	-3.885897	4.264315	-3.275545	0.631348	0.943848	0.991699
25570		-11.672658	1.848730	2.574860	-3.486627	4.314846	-2.763217	0.560791	0.923096	1.051270
25571		-12.923143	0.941758	1.881870	-2.801923	4.322618	-2.346473	0.481201	0.904297	1.102051
25572		-13.844586	0.490057	1.559181	-2.331188	4.265736	-2.025493	0.410400	0.890381	1.145996
25573		-14.303583	-0.000613	1.036102	-2.141424	4.163909	-1.755660	0.339600	0.869385	1.201172
25574		-15.182826	-2.381321	-1.655160	-2.326649	4.075419	-1.301029	0.273682	0.848633	1.238770
25575		-17.772067	-6.879762	-6.731380	-1.968521	3.654415	-0.793742	0.216064	0.834717	1.278320
25576		-20.687655	-11.394384	-10.379154	-0.484978	3.119210	-0.277435	0.173584	0.836426	1.297852
25577		-20.650211	-11.144119	-9.252688	0.031196	2.679528	-0.380150	0.131592	0.829346	1.315430
25578		-16.207543	-8.155841	-9.751017	-0.591120	1.978132	-0.426268	0.109375	0.826904	1.335205
25579		-12.794731	-7.409470	-10.893138	-0.846331	1.326985	0.369586	0.100342	0.824463	1.361816
25580		-11.165236	-8.064104	-12.365177	-0.893881	0.611958	0.966485	0.105469	0.811279	1.386230
25581		-9.332715	-9.056038	-14.181798	-0.618323	-0.237172	1.242451	0.132324	0.804932	1.402100
25582		-7.428619	-9.538250	-14.681866	0.016842	-1.047408	1.422513	0.167725	0.812012	1.417480
25583		-5.758262	-9.374624	-14.300820	0.462550	-1.891900	1.595011	0.218994	0.816895	1.424316
25584		-4.571210	-9.607506	-14.512165	0.787714	-2.694718	1.814748	0.294434	0.828857	1.426758
25585		-3.176807	-9.933944	-13.724736	1.195503	-3.485612	2.086729	0.374023	0.843018	1.417969
25586		-1.217331	-9.391278	-12.577535	1.524182	-4.227076	2.336410	0.484863	0.862061	1.391602
25587		0.899033	-8.128558	-11.561050	1.969663	-4.808071	2.633955	0.593262	0.885498	1.360840
25588		2.076258	-7.126262	-10.637151	2.550894	-5.336308	2.942934	0.708740	0.904541	1.310303
25589		1.793737	-7.065180	-10.091828	3.269673	-5.766121	3.174604	0.828125	0.930420	1.239990
25590		1.086665	-6.306619	-7.926483	3.617949	-5.945710	3.212623	0.949951	0.953857	1.154053
25591		0.654054	-4.897168	-6.102118	3.037278	-6.138424	3.405803	1.072754	0.955322	1.071045
25592		0.348340	-3.327768	-5.951062	2.200908	-6.373710	3.685049	1.202881	0.936523	0.990723
25593		0.206568	-2.082419	-6.231277	1.508648	-6.517630	3.974344	1.318359	0.895508	0.902100
25594		-0.121384	-1.693357	-6.361262	0.974858	-6.725956	4.318184	1.434326	0.843506	0.802734
25595		-0.805940	-2.227394	-6.569325	0.638365	-6.844839	4.578062	1.543945	0.780029	0.703613
25596		-1.936635	-4.007559	-7.002491	0.551716	-6.891909	4.785674	1.647461	0.703369	0.595947
25597		-3.168534	-6.611498	-6.423659	0.708735	-6.759456	5.034324	1.737793	0.621826	0.475098
25598		-5.142293	-8.780267	-5.741722	0.887650	-6.392648	5.226743	1.810547	0.535889	0.363037
25599		-7.584057	-10.037383	-6.290599	0.907958	-5.923897	5.339633	1.874756	0.438721	0.257813
25600		-9.025497	-11.678093	-8.519528	0.717246	-5.538423	5.415073	1.919189	0.332275	0.152588
25601		-9.316164	-11.242813	-8.798392	0.277438	-5.055590	5.033669	1.951904	0.237061	0.051758
25602		-11.959666	-8.590003	-7.691108	0.227889	-4.303952	3.565428	1.967773	0.179199	-0.030518
25603		-13.034279	-3.695444	-5.241408	-0.005009	-3.509043	1.701992	1.973145	0.157227	-0.091553
25604		-6.855997	-5.816255	-6.001794	-0.662846	-2.903432	1.075948	1.982910	0.135010	-0.144043
25605		4.942956	-10.455478	-8.396034	-1.244707	-1.867517	0.567764	1.985352	0.128418	-0.176758
25606		12.313998	-10.243004	-10.588734	-1.418727	-0.224123	-0.111818	1.989746	0.135010	-0.150635
25607		7.928479	-10.208112	-12.467487	-1.306266	1.389255	-0.406003	1.986816	0.146240	-0.104492
25608		1.166022	-10.454783	-13.203591	-0.908074	2.386585	-1.064215	1.981201	0.179443	-0.054688
25609		-2.663416	-11.075115	-12.850297	-0.124944	3.037943	-2.217599	1.967773	0.232666	0.016602
25610		-0.590318	-14.517254	-3.521895	1.522100	3.510717	-2.847421	1.947021	0.303711	0.093994
25611		-9.651066	-18.794691	10.274593	2.821392	3.805688	-3.261951	1.930176	0.392578	0.171143
25612		-24.446636	-11.362698	-4.758616	3.079427	3.996533	-5.275091	1.878418	0.514404	0.238281
25613		-47.684953	19.715223	5.835829	3.204506	4.454436	-3.495751	1.853027	0.587646	0.300293
25614		-24.247880	2.921351	-3.783606	0.243876	3.205019	-2.737859	1.811035	0.633789	0.360596
25615		-7.046483	-5.920751	-18.324433	-2.535427	2.848981	-2.020481	1.774658	0.651367	0.437012
25616		7.503060	-14.610445	-24.587768	-5.021173	1.158189	-4.206342	1.722168	0.735352	0.474365
25617		29.245904	-25.461471	-30.837677	2.064267	2.869355	-5.300669	1.658447	0.825928	0.522461
25618		1.684073	-19.443567	-5.038683	4.598784	5.804703	-1.597028	1.588867	0.887451	0.582275
25619		-18.760108	-8.812307	-6.250185	0.027783	2.817411	-2.718111	1.531982	0.917969	0.616211
25620		-14.506573	-7.483537	-12.684682	-1.413371	1.655854	-1.183587	1.498047	0.924316	0.651123
25621		-14.168630	-7.396553	-11.527089	-0.422451	1.952565	-0.832217	1.455322	0.932617	0.679443
25622		-17.894426	-14.538883	-12.228324	-1.329202	1.656875	-0.661761	1.424561	0.923584	0.708008
25623		-19.785352	-21.241772	-13.398572	-1.044660	0.787906	-0.053533	1.397705	0.923096	0.716797
25624		-18.512643	-18.229488	-11.944380	0.626161	0.718301	-0.927800	1.356689	0.945068	0.693848
25625		-19.266743	-12.805409	-9.590827	0.635240	0.606062	-1.325753	1.327148	0.960205	0.686768
25626		-17.114850	-10.336635	-8.080680	0.120574	0.270342	-1.515465	1.293213	0.971191	0.679688
25627		-21.364732	-3.030152	-6.021321	0.148020	0.512871	-0.306592	1.275879	0.957520	0.673340
25628		-32.363647	7.304642	-3.030776	-0.287233	0.297511	0.800653	1.263184	0.939697	0.666992
25629		-28.553956	8.314228	-0.935548	-1.037663	0.085566	-0.716124	1.236572	0.934814	0.660400
25630		-20.648511	3.759960	0.206227	-1.607500	-0.046156	-1.269217	1.218994	0.927979	0.653809
25631		-17.038519	1.992267	3.036399	-1.702582	-0.044453	-1.279219	1.199463	0.918945	0.665039
25632		-13.031729	2.599845	5.771423	-1.606570	-0.013327	-1.022555	1.177490	0.907471	0.656494
25633		-12.249359	1.913275	8.410872	-1.370544	0.087563	-0.231038	1.169434	0.883057	0.661377
25634		-12.565398	-0.595174	9.319363	-1.320139	0.232251	-0.021833	1.156738	0.867188	0.661621
25635		-10.824511	-3.442288	9.741732	-0.772842	0.722046	-0.292810	1.148193	0.860352	0.661865
25636		-9.090050	-3.677951	11.395077	0.301188	1.165763	-0.789579	1.127686	0.871338	0.659180
25637		-6.544021	-0.698280	11.236958	1.129577	1.485745	-1.386447	1.095215	0.897705	0.660645
25638		-3.712572	3.634934	11.278346	1.322096	1.892614	-1.749070	1.058838	0.919678	0.659912
25639		-2.493497	10.557519	10.934995	0.991693	2.360177	-2.017689	1.021973	0.948242	0.674316
25640		-3.797614	14.231824	10.155470	0.274624	2.858553	-2.425790	0.967529	0.969727	0.704346
25641		-6.197535	12.282234	9.045941	-0.542579	3.312090	-2.914487	0.904297	0.989258	0.745361
25642		-9.409349	10.270914	8.888388	-1.116491	3.672774	-3.338530	0.838623	1.010742	0.790771
25643		-12.389382	9.982472	8.215074	-1.711786	3.890337	-3.662224	0.760010	1.023193	0.844971
25644		-14.137589	9.022801	6.022846	-2.371340	4.012413	-3.738084	0.683838	1.026855	0.901855
25645		-14.715500	7.349144	4.101153	-2.781777	4.038439	-3.506762	0.601563	1.023682	0.963135
25646		-14.548220	5.562372	2.680182	-2.951537	4.030348	-3.067880	0.530518	1.009521	1.024658
25647		-14.121499	4.884001	1.443063	-3.067586	3.994999	-2.627973	0.457764	0.988770	1.077637
25648		-13.967090	4.436625	0.684572	-3.230744	3.964871	-2.220320	0.391846	0.958984	1.150635
25649		-14.020555	2.458380	-0.649918	-3.825680	3.926475	-1.747625	0.326660	0.913818	1.206543
25650		-15.226041	-1.943234	-4.492732	-4.349457	3.828354	-1.040840	0.268799	0.857666	1.271484
25651		-18.279154	-8.575539	-10.756278	-3.985792	3.134082	-0.336077	0.225830	0.812500	1.318604
25652		-21.793593	-14.963225	-14.405757	-1.694582	2.421005	0.208916	0.195068	0.801025	1.351807
25653		-19.147619	-12.947648	-9.972086	-0.554336	1.979234	-0.275862	0.168701	0.791992	1.374023
25654		-12.167561	-5.622705	-8.490823	-1.169807	1.456898	-0.304063	0.153809	0.773926	1.407227
25655		-9.129274	-3.533878	-10.685921	-1.607205	0.669976	0.610207	0.154541	0.751709	1.434326
25656		-8.138249	-6.492564	-13.294259	-0.978717	-0.230901	1.442449	0.186035	0.745361	1.452393
25657		-6.998747	-10.659496	-13.964273	-0.229899	-1.353539	1.906886	0.237793	0.737061	1.468262
25658		-4.804007	-13.055327	-14.313561	0.575315	-2.177234	2.077481	0.297607	0.748779	1.468262
25659		-2.955261	-13.129704	-14.098329	1.222854	-2.746274	2.054122	0.368408	0.760498	1.466309
25660		-2.093793	-11.699401	-13.440373	1.673303	-3.350452	2.164954	0.461182	0.786133	1.450684
25661		-1.590514	-9.079227	-11.577226	1.917707	-4.023238	2.423730	0.556396	0.804932	1.424316
25662		-0.775206	-6.231777	-10.167205	2.050256	-4.718115	2.678135	0.667236	0.821777	1.382813
25663		0.014540	-4.793964	-9.871213	2.452864	-5.329998	2.848666	0.784912	0.838623	1.336670
25664		0.326465	-5.079680	-9.103695	3.099874	-5.913383	3.000362	0.911377	0.857666	1.268555
25665		0.194012	-5.769190	-7.903869	3.367541	-6.568089	3.172135	1.039795	0.881348	1.176270
25666		0.498517	-5.496810	-6.063306	2.806814	-7.039566	3.280420	1.176514	0.867432	1.091553
25667		1.654842	-4.862961	-6.908877	1.943203	-7.052536	3.619464	1.304688	0.848633	0.984619
25668		1.302397	-5.041123	-7.334539	1.625147	-7.035099	4.306756	1.427002	0.803223	0.887451
25669		0.332622	-6.694586	-6.811497	1.138406	-7.215706	4.886014	1.545898	0.733398	0.779541
25670		-0.292011	-8.490674	-6.620644	0.747821	-7.291423	5.312442	1.660645	0.654541	0.663330
25671		-2.189688	-8.753655	-6.792980	0.790765	-7.225774	5.286409	1.751221	0.564209	0.529297
25672		-5.319919	-9.059355	-6.803688	1.068223	-7.038208	5.161594	1.834717	0.484863	0.401855
25673		-8.828781	-10.812214	-7.296773	1.169521	-6.871731	4.985874	1.896729	0.392090	0.265625
25674		-11.373039	-12.421112	-7.794758	0.881764	-6.613283	4.616897	1.942383	0.308105	0.142334
25675		-10.490997	-9.785214	-6.194384	-0.281169	-6.168919	4.346312	1.979736	0.215088	0.025879
25676		-10.310202	-1.466395	-5.790223	-1.131574	-5.213371	4.085021	1.989746	0.132813	-0.071045
25677		-13.796879	1.775278	-4.405208	-1.023031	-4.324036	2.759424	2.004883	0.088379	-0.155762
25678		-11.390362	-6.485621	-5.850179	-1.364187	-3.611420	1.596512	1.997314	0.054932	-0.221191
25679		-2.145221	-12.722797	-9.085319	-1.254681	-2.541182	0.772885	2.002197	0.046143	-0.262939
25680		7.481374	-13.207298	-9.955165	-0.576992	-0.881096	-0.018717	2.003906	0.055176	-0.269531
25681		8.201330	-12.136957	-11.334227	0.103349	0.763190	-0.229609	2.012695	0.061768	-0.236816
25682		4.645185	-11.903517	-13.575224	0.724225	1.889896	-0.689369	2.013916	0.088623	-0.188965
25683		2.409536	-11.411545	-14.535365	1.742226	2.916446	-1.648800	2.007813	0.126465	-0.119385
25684		0.503311	-11.746168	-13.252047	2.900438	3.722259	-2.316888	2.003174	0.186279	-0.032715
25685		-2.980802	-13.141135	-8.243189	3.775027	4.029558	-2.334715	1.987305	0.244141	0.042969
25686		-11.961071	-14.352803	18.871479	4.937341	3.417578	-2.749198	1.968262	0.333008	0.091309
25687		-19.097520	-11.075358	3.695944	3.740750	2.187311	-4.682898	1.934814	0.443848	0.138916
25688		-44.554163	19.144767	-0.948572	1.901942	4.304796	-3.478412	1.905029	0.519287	0.216309
25689		-17.489511	19.072654	0.841216	-1.167575	2.824538	-4.560851	1.864014	0.596680	0.282471
25690		-6.999529	-2.090048	-17.282188	-2.471398	3.431227	-1.920869	1.834473	0.607422	0.374512
25691		-11.221423	-11.967984	-23.577335	-5.136063	3.249146	-1.206829	1.800781	0.611572	0.460205
25692		-2.452900	-21.803804	-22.998962	-3.325156	1.970602	-4.531850	1.738770	0.708740	0.503662
25693		12.192095	-29.676576	-25.823983	3.173286	3.103361	-5.956061	1.664795	0.832520	0.524414
25694		-0.255776	-18.073207	-3.707800	5.494360	3.892721	-2.333297	1.611328	0.887695	0.551514
25695		-14.912759	-12.118915	-5.185536	-0.898505	2.180794	-0.913700	1.574951	0.900635	0.586182
25696		-10.931737	-4.857282	-9.575947	0.427231	1.592535	-2.165668	1.528809	0.940186	0.609131
25697		-9.952510	-5.264207	-9.410352	-0.315754	2.212874	-1.868716	1.485840	0.950928	0.641602
25698		-18.696686	-14.341287	-8.956543	-0.621699	1.557029	0.509515	1.459961	0.932861	0.646484
25699		-23.431184	-17.425665	-8.635398	-0.651491	0.587536	0.467144	1.435547	0.925781	0.655273
25700		-19.034001	-13.608563	-9.553922	-0.437355	0.501316	-1.357032	1.401367	0.945557	0.654541
25701		-14.647972	-12.906446	-8.393970	-0.255421	0.369665	-1.585920	1.364990	0.960693	0.649658
25702		-17.925461	-11.484577	-7.752837	0.056975	0.503060	-0.561083	1.349365	0.960449	0.638428
25703		-26.922682	-4.447325	-5.296211	0.120452	0.322076	0.220396	1.327393	0.951416	0.623047
25704		-27.984845	4.172811	-2.990166	-0.163692	0.147239	-0.524465	1.305176	0.948975	0.620850
25705		-22.635162	6.875301	-1.250438	-0.725067	-0.021251	-0.836070	1.281006	0.939697	0.614258
25706		-18.465202	4.624679	0.500359	-1.214570	-0.109971	-0.847876	1.267822	0.935303	0.614258
25707		-15.021265	2.890893	3.326506	-1.281522	-0.119989	-0.995067	1.248291	0.923828	0.603516
25708		-13.399427	2.453665	4.943324	-1.361480	-0.055624	-0.576256	1.237549	0.910400	0.605957
25709		-14.453120	1.007307	7.793201	-1.431957	0.014330	-0.209303	1.224854	0.894775	0.606201
25710		-13.451876	-0.814334	8.747048	-1.484417	0.172514	-0.286618	1.211914	0.883301	0.613037
25711		-11.703115	-2.256984	10.191761	-0.980002	0.569667	-0.552580	1.192383	0.872070	0.611084
25712		-9.649707	-0.977235	10.602864	-0.301054	0.882395	-0.877512	1.176514	0.874023	0.617432
25713		-5.359563	1.967494	11.417849	0.121901	1.230260	-1.281050	1.149170	0.891602	0.621338
25714		-1.736918	7.053748	11.586258	0.106943	1.742422	-1.711502	1.119385	0.911377	0.636230
25715		-1.199606	11.249831	10.423240	-0.271260	2.273952	-2.176224	1.067383	0.928711	0.659668
25716		-3.328965	11.359202	8.628806	-0.912976	2.779170	-2.730838	1.021973	0.948242	0.700684
25717		-7.574254	10.106738	8.225181	-1.438096	3.197700	-3.279109	0.954102	0.969727	0.746094
25718		-11.114527	10.550407	8.092075	-1.824062	3.521893	-3.795040	0.886475	0.984375	0.802734
25719		-13.154244	11.098688	6.896559	-2.444919	3.877478	-4.223448	0.801025	1.001465	0.861084
25720		-13.355087	6.624786	4.881787	-2.977747	4.143643	-4.217409	0.720703	1.002686	0.924561
25721		-12.619246	3.031414	3.352302	-3.199735	4.363185	-3.775353	0.629639	0.988281	0.992676
25722		-12.792293	2.532381	2.035578	-3.220401	4.534148	-3.224375	0.549805	0.976318	1.060791
25723		-13.315903	2.462509	0.900366	-3.023113	4.556155	-2.757583	0.476807	0.957764	1.115967
25724		-13.165751	1.763306	0.204006	-2.885068	4.462622	-2.432726	0.390869	0.927979	1.175781
25725		-12.240519	0.679255	-0.689005	-2.824547	4.303048	-2.115551	0.320557	0.900391	1.219971
25726		-11.546424	-1.981955	-2.834535	-3.098922	4.125218	-1.602382	0.248535	0.859619	1.269043
25727		-12.029474	-6.875138	-7.445915	-3.573514	3.911920	-0.815961	0.192383	0.814453	1.327148
25728		-13.987868	-13.157075	-12.499193	-3.122057	3.080617	-0.173175	0.151123	0.782715	1.365234
25729		-14.797679	-17.235181	-14.190711	-1.486311	2.350410	-0.012370	0.118164	0.769043	1.389648
25730		-12.333411	-12.953414	-12.202288	0.041333	2.267766	-0.287698	0.082520	0.770996	1.409180
25731		-10.070770	-5.649575	-8.893789	-0.301289	1.803162	0.047114	0.066895	0.768555	1.422363
25732		-9.169900	-2.510504	-9.992044	-1.128076	0.861022	0.800799	0.063232	0.746338	1.449463
25733		-7.152574	-4.811501	-12.234122	-1.177350	-0.209357	1.286285	0.099609	0.730957	1.465332
25734		-5.116220	-9.709322	-14.108140	-0.570191	-1.428113	1.719785	0.144531	0.724854	1.485596
25735		-3.685957	-13.147461	-14.768012	0.539215	-2.195395	1.937918	0.204346	0.736572	1.476807
25736		-2.728323	-13.454830	-13.812152	1.333906	-2.917812	1.957540	0.272217	0.768555	1.472168
25737		-1.837444	-10.846823	-12.049240	1.899857	-3.589693	2.022597	0.363037	0.782715	1.461182
25738		-0.790375	-7.247528	-9.859902	2.145966	-4.218312	2.182654	0.464355	0.817383	1.430176
25739		0.447638	-4.327345	-8.181193	2.228561	-4.792859	2.365651	0.572998	0.838623	1.401611
25740		1.179195	-3.720737	-7.626205	2.274805	-5.391547	2.550701	0.692627	0.857666	1.351074
25741		1.524405	-4.661323	-7.289841	2.605827	-5.890569	2.644254	0.810059	0.878906	1.291748
25742		1.489095	-4.843662	-6.149100	2.606392	-6.312302	2.695417	0.936768	0.895996	1.217285
25743		1.202648	-4.564326	-5.540518	2.286029	-6.759423	2.849219	1.063965	0.892822	1.145264
25744		0.827040	-3.937486	-5.448341	1.649732	-6.971457	3.224628	1.196533	0.872070	1.053955
25745		0.377817	-3.648238	-6.036863	1.143375	-7.159692	3.665424	1.311768	0.839844	0.958496
25746		0.487613	-3.454998	-6.650445	0.731475	-7.356073	4.028960	1.438721	0.785645	0.859375
25747		0.151849	-4.187904	-7.450468	0.446365	-7.476656	4.501195	1.555420	0.719971	0.751465
25748		-0.883327	-5.296882	-7.228664	0.466649	-7.495265	4.805031	1.660645	0.652344	0.625977
25749		-2.816156	-6.149520	-6.927920	0.642961	-7.382368	4.846817	1.744141	0.572998	0.504883
25750		-5.673327	-7.795813	-6.034767	0.951525	-7.050317	4.797353	1.816650	0.493652	0.372803
25751		-8.141918	-10.757374	-6.604853	1.131597	-6.684868	4.608547	1.877930	0.412109	0.245361
25752		-9.134664	-13.994508	-9.143542	1.195728	-6.249091	4.396200	1.921387	0.332275	0.128418
25753		-8.925955	-15.539315	-9.872686	1.201214	-5.749553	4.066011	1.948975	0.257080	0.020264
25754		-8.756467	-10.784796	-6.624865	1.091942	-4.787758	3.197659	1.964355	0.210449	-0.064453
25755		-11.357942	2.874509	-4.990732	0.529024	-3.336146	2.242232	1.970459	0.166016	-0.127197
25756		-13.641454	0.097507	-2.209170	0.595579	-2.681042	2.042899	1.978516	0.132813	-0.183594
25757		-4.126974	-8.276268	-6.852038	0.110812	-2.079202	1.052054	1.979248	0.114990	-0.209473
25758		5.551629	-11.742386	-10.074069	0.502742	-0.633297	-0.260706	1.980713	0.132813	-0.209961
25759		11.557752	-12.615111	-11.770646	1.073519	0.855332	-1.048282	1.979980	0.155029	-0.181885
25760		8.392083	-10.133929	-13.378874	1.273497	2.275251	-1.414616	1.980713	0.190674	-0.125488
25761		-0.305324	-6.592823	-13.472046	1.644979	3.626315	-1.871956	1.967529	0.241699	-0.036377
25762		-3.700900	-6.901077	-5.259153	2.807133	4.174333	-2.623309	1.953613	0.306152	0.045654
25763		-13.004449	-15.900700	19.467647	4.336492	3.727070	-2.984716	1.936768	0.397217	0.102783
25764		-23.103638	-26.167402	0.070444	3.780814	2.851236	-5.417962	1.886719	0.530029	0.145508
25765		-41.808022	-0.554805	-2.893798	2.154932	4.164889	-4.901129	1.852051	0.618896	0.222412
25766		-20.769272	22.528519	-4.846754	-0.151291	2.905897	-2.935217	1.820801	0.669678	0.275879
25767		-3.792291	2.692476	-26.308264	-3.138710	2.461007	-1.569707	1.787109	0.678223	0.350586
25768		-2.569222	-9.730508	-23.281883	-3.347966	2.906036	-1.760303	1.747803	0.708984	0.431152
25769		-1.400922	-13.144828	-18.527594	-0.250748	3.544445	-3.630936	1.688965	0.783936	0.483887
25770		-2.897830	-21.293429	-17.338908	2.528071	3.505087	-5.044785	1.611084	0.894287	0.509277
25771		-5.715796	-16.698168	-3.576811	1.719982	2.613970	-3.102327	1.560547	0.925049	0.541504
25772		-8.611573	-12.854489	-10.595334	-1.245174	1.328033	-0.949336	1.526855	0.935791	0.558594
25773		-5.878039	-12.209936	-11.449967	0.027669	1.511544	-1.960937	1.474121	0.970703	0.585938
25774		-10.675638	-21.127977	-8.426028	0.061689	2.359237	-0.877510	1.440674	0.968262	0.610107
25775		-21.635619	-21.847227	-7.190659	-0.056583	1.199261	0.961011	1.430176	0.952637	0.619385
25776		-26.217552	-11.861186	-8.351927	0.315186	0.636894	0.186994	1.398682	0.958984	0.607910
25777		-19.632597	-6.942988	-6.954808	0.072909	0.372761	-1.581601	1.355469	0.980713	0.602783
25778		-15.463050	-8.363350	-7.131922	0.035462	0.583620	-1.344496	1.323730	0.989258	0.593506
25779		-24.049237	-5.807684	-5.678716	0.030801	0.583701	0.043073	1.311035	0.973633	0.589355
25780		-30.180015	2.262537	-4.144809	-0.161056	0.341283	-0.017988	1.293213	0.971191	0.578369
25781		-26.097483	5.836902	-1.959038	-0.661891	0.118555	-0.832125	1.269043	0.964111	0.573975
25782		-20.626670	6.187035	0.331848	-1.181981	-0.050088	-0.991621	1.244873	0.955078	0.567383
25783		-16.775284	4.433675	2.451508	-1.479493	-0.076768	-0.737117	1.229736	0.939209	0.576660
25784		-13.740617	2.764674	4.876973	-1.518133	-0.045384	-0.536000	1.223633	0.927979	0.570313
25785		-12.721649	2.395660	7.383373	-1.411739	0.062037	-0.200737	1.211182	0.905762	0.575195
25786		-12.058440	1.028791	8.774997	-1.454732	0.250036	-0.137214	1.193604	0.896484	0.581787
25787		-9.268281	-1.428152	10.182098	-1.071823	0.732161	-0.478298	1.178467	0.883057	0.586426
25788		-7.302305	-1.061159	11.538200	-0.298236	1.138604	-0.963441	1.155762	0.891602	0.592773
25789		-5.516147	0.540168	10.376027	0.288464	1.451492	-1.454190	1.126221	0.904785	0.601074
25790		-2.861688	4.576664	9.025005	0.423398	1.806876	-1.818466	1.089844	0.926514	0.609131
25791		-2.420869	9.174523	9.118694	0.256221	2.211822	-2.029783	1.053223	0.946289	0.623779
25792		-3.578145	12.403693	9.091420	-0.170348	2.567722	-2.447609	1.007813	0.968018	0.653809
25793		-5.765672	11.244723	8.096391	-0.813488	2.930001	-3.009862	0.948730	0.989746	0.692627
25794		-8.116278	8.642827	8.394824	-1.321531	3.352512	-3.526593	0.878662	1.013428	0.733643
25795		-10.256753	8.194213	7.914377	-1.662377	3.776776	-3.936351	0.800049	1.025879	0.787842
25796		-11.993454	6.559310	5.640679	-2.050663	4.133223	-4.170454	0.716797	1.042725	0.850830
25797		-12.834589	3.125342	3.839956	-2.358627	4.421192	-4.012672	0.631592	1.052979	0.907471
25798		-13.757554	1.861703	2.266173	-2.525305	4.602717	-3.505450	0.549316	1.045410	0.966553
25799		-14.784535	2.457704	0.875183	-2.552819	4.637196	-2.957070	0.465088	1.031006	1.023682
25800		-15.000234	2.987144	0.326155	-2.534254	4.562163	-2.532008	0.385254	1.014648	1.072266
25801		-13.732818	2.463172	0.095181	-2.635317	4.379724	-2.329263	0.308105	0.993896	1.129639
25802		-12.217876	0.113364	-1.456947	-3.075882	4.225343	-1.916309	0.235840	0.957275	1.185059
25803		-12.744171	-4.887576	-5.903870	-3.901814	4.068793	-1.040072	0.175293	0.905518	1.243408
25804		-16.121322	-11.914183	-10.826562	-3.949417	3.737858	-0.110750	0.127930	0.862793	1.290527
25805		-20.348433	-19.111208	-14.875536	-2.800146	2.558150	0.178719	0.095703	0.833496	1.328369
25806		-16.988152	-18.498012	-15.401238	-0.183489	2.196084	-0.312974	0.052734	0.846436	1.338867
25807		-10.983822	-10.347121	-10.421534	0.256621	2.002854	-0.433224	0.034912	0.843994	1.356445
25808		-7.674393	-4.623997	-10.632857	-0.946812	1.081512	0.314147	0.031006	0.828369	1.376709
25809		-5.654420	-3.827317	-12.627330	-0.783018	0.134538	0.982048	0.053467	0.823975	1.396729
25810		-4.458774	-6.162409	-12.077815	-0.403188	-0.690978	1.343053	0.082275	0.828857	1.420898
25811		-3.939289	-9.195289	-13.026077	-0.136433	-1.691949	1.623728	0.134033	0.822754	1.425781
25812		-3.099051	-11.152535	-13.745123	0.681690	-2.510953	1.831316	0.207031	0.834473	1.426025
25813		-1.581539	-10.719985	-12.742837	1.518205	-3.134031	1.976530	0.277344	0.862061	1.423584
25814		0.243827	-8.672555	-10.596701	2.011108	-3.773966	2.252398	0.372314	0.887451	1.396973
25815		1.857598	-6.724781	-8.641660	2.106152	-4.423883	2.719898	0.478271	0.915527	1.365967
25816		2.727614	-5.225921	-7.141060	2.060195	-5.000759	3.070618	0.593750	0.929932	1.331055
25817		2.441094	-4.590639	-6.482234	2.043201	-5.455224	3.204266	0.711426	0.944580	1.282959
25818		1.548639	-5.135373	-6.369889	2.272722	-5.835242	3.253845	0.836182	0.950439	1.226318
25819		0.987696	-5.329011	-5.853542	2.257787	-6.228376	3.359220	0.970215	0.949707	1.156494
25820		0.584497	-5.159924	-5.608072	2.091694	-6.654130	3.518679	1.095703	0.937744	1.067139
25821		1.056572	-4.201151	-5.655933	1.526628	-7.000741	3.705882	1.226074	0.914551	0.982666
25822		1.560028	-2.747973	-6.625906	0.946779	-7.208196	4.006745	1.341797	0.869141	0.885254
25823		0.730318	-2.006046	-6.642715	0.643468	-7.269861	4.496900	1.469238	0.810303	0.786133
25824		-1.031293	-1.856885	-5.761065	0.248332	-7.406999	4.895522	1.579102	0.740479	0.678223
25825		-3.014391	-3.116201	-5.721155	-0.052842	-7.447505	5.083433	1.685303	0.650391	0.564453
25826		-5.076858	-6.539098	-5.603177	0.169495	-7.303552	5.178196	1.764648	0.564453	0.434814
25827		-7.219909	-9.792578	-5.046863	0.373172	-6.919958	5.040245	1.837402	0.478271	0.311768
25828		-9.321063	-12.794238	-7.405032	0.440980	-6.408022	4.764305	1.892090	0.394287	0.195068
25829		-11.245092	-15.553342	-10.020225	0.510480	-5.841347	4.341108	1.929199	0.305664	0.089600
25830		-11.617240	-14.202167	-7.693120	0.292753	-5.178976	3.387171	1.951904	0.241455	-0.005615
25831		-10.696026	-3.338331	-6.416212	-0.363256	-4.027021	2.182463	1.968750	0.210449	-0.079834
25832		-11.168233	-0.030483	-4.996259	-0.296830	-2.979980	1.799255	1.972168	0.179443	-0.131836
25833		-4.777287	-7.949858	-7.487978	-0.658126	-2.299361	1.011108	1.975342	0.159424	-0.168945
25834		5.595506	-12.013536	-9.993066	-0.610054	-0.945753	-0.126277	1.974365	0.179443	-0.171631
25835		11.677697	-12.829573	-11.818887	-0.213610	0.793659	-1.090839	1.973389	0.206055	-0.141357
25836		7.901565	-11.868119	-13.224852	0.198471	2.299409	-1.409234	1.965576	0.232666	-0.084717
25837		0.198591	-11.418552	-15.140802	1.052320	3.334697	-1.590488	1.963623	0.279541	-0.006592
25838		-3.086854	-12.261855	-11.614056	2.453926	3.881600	-2.168875	1.941162	0.339355	0.077637
25839		-7.618243	-15.748834	16.534480	4.994153	3.821271	-2.706301	1.917725	0.423584	0.117432
25840		-15.386729	-18.364330	8.478919	4.181207	2.164875	-4.093157	1.891357	0.527832	0.156494
25841		-31.130322	-22.004362	-9.492478	3.894269	3.615771	-4.525321	1.842773	0.623047	0.226563
25842		-33.955670	16.631186	-9.898593	0.874131	4.534951	-3.959984	1.799072	0.711670	0.288086
25843		-9.627768	22.909906	-20.451412	-0.230250	2.908779	-1.928343	1.767578	0.720215	0.360352
25844		-11.199610	-5.056151	-18.646556	-3.039627	3.512547	-0.510249	1.736328	0.719971	0.439453
25845		-6.113001	-13.425610	-15.927220	-2.116606	2.240021	-3.412690	1.672852	0.799316	0.476807
25846		4.455434	-18.529795	-18.157708	0.301937	2.025759	-6.440776	1.592285	0.918701	0.497559
25847		6.456029	-25.021563	-13.644444	3.284849	2.604643	-3.519703	1.545898	0.960449	0.524902
25848		-7.663142	-16.448008	-4.173169	-1.106180	2.400241	0.192751	1.517090	0.951172	0.558105
25849		-12.676004	-9.447040	-12.027165	0.028679	1.603585	-1.526985	1.460205	0.981689	0.583496
25850		-17.774853	-12.469297	-8.429921	0.102493	2.452751	-1.259308	1.428711	0.988037	0.607422
25851		-24.587856	-19.055031	-7.241333	-0.310374	0.773820	0.541082	1.411377	0.972412	0.609863
25852		-22.086656	-15.199362	-7.599818	-0.101711	0.390054	-0.595027	1.370850	0.985352	0.604980
25853		-15.831232	-10.029037	-7.838472	-0.130846	0.358682	-1.767332	1.343262	1.007324	0.595459
25854		-14.274263	-8.645157	-6.325058	-0.048151	0.436079	-1.180420	1.307373	1.011230	0.592773
25855		-21.824520	-6.036542	-4.994872	-0.207631	0.492357	-0.358962	1.283447	0.995361	0.579834
25856		-29.279227	1.533323	-3.978189	-0.316186	0.238904	-0.120421	1.263428	0.990723	0.579834
25857		-26.029782	6.102588	-1.984005	-0.808974	0.029378	-0.968236	1.239014	0.988281	0.577637
25858		-19.877096	4.953855	-0.204364	-1.123482	-0.157249	-1.138768	1.212402	0.983643	0.571045
25859		-16.845681	3.777810	2.055519	-1.309684	-0.158917	-1.028413	1.206299	0.972412	0.562500
25860		-14.145046	3.423092	4.658058	-1.352543	-0.070843	-0.766582	1.188965	0.956543	0.567139
25861		-13.171471	3.011030	7.009075	-1.293783	0.121976	-0.460659	1.171387	0.947510	0.567139
25862		-12.788969	1.860319	8.526219	-1.463723	0.383639	-0.444557	1.158691	0.929688	0.576416
25863		-10.735527	-1.346874	8.610011	-1.447872	0.777725	-0.751534	1.145508	0.927246	0.585205
25864		-8.037733	-2.405312	8.344763	-0.973679	1.066481	-1.092448	1.118652	0.929199	0.600342
25865		-6.623936	-0.140823	8.923472	-0.364130	1.312612	-1.385115	1.087158	0.935547	0.606689
25866		-5.684825	4.123055	9.068345	-0.143808	1.614861	-1.671037	1.046387	0.948486	0.617188
25867		-4.559668	6.643239	8.565966	-0.355675	2.020658	-2.048614	1.014648	0.961426	0.640869
25868		-3.618287	6.996430	7.552392	-0.819868	2.481151	-2.438196	0.969727	0.972168	0.671143
25869		-4.139427	6.392692	6.599944	-1.362553	2.987736	-2.752396	0.913574	0.978027	0.710449
25870		-6.838818	6.360898	6.811573	-1.755955	3.443788	-2.954194	0.848633	0.986328	0.758301
25871		-10.089113	8.316493	6.540616	-2.176743	3.784798	-3.128041	0.785400	1.003418	0.816895
25872		-11.682690	9.109432	5.502538	-2.710591	3.993870	-3.197243	0.707520	0.993652	0.874023
25873		-11.424026	7.491466	3.430643	-3.155058	4.058470	-2.970038	0.636719	0.979492	0.940186
25874		-11.266750	5.652251	2.490576	-3.261141	4.085035	-2.672781	0.565918	0.960938	0.999756
25875		-11.090902	4.477284	1.465581	-3.188653	4.015385	-2.430368	0.497559	0.942383	1.050293
25876		-10.857766	3.046215	0.400674	-3.060915	3.942645	-2.153011	0.429443	0.917236	1.110107
25877		-10.815408	1.560750	-0.395834	-2.913716	3.824648	-1.844347	0.361328	0.885254	1.156738
25878		-11.078619	0.209025	-0.667380	-2.919894	3.769028	-1.563169	0.302246	0.855713	1.205566
25879		-12.301996	-2.903748	-3.941089	-3.483208	3.699795	-1.104495	0.243896	0.810547	1.252686
25880		-15.089152	-9.247153	-10.064840	-3.001583	3.185963	-0.385596	0.200195	0.785645	1.294922
25881		-19.462457	-14.117845	-10.870626	-0.962781	2.818555	0.138850	0.156006	0.776123	1.314697
25882		-21.525685	-12.718029	-9.081534	-0.648337	2.360111	-0.259646	0.123047	0.762451	1.339111
25883		-17.277953	-8.654711	-10.166646	-0.628652	1.723857	-0.251338	0.105225	0.760010	1.350098
25884		-13.000659	-6.919778	-10.038516	-0.549511	1.113483	0.536830	0.101074	0.748779	1.372314
25885		-10.202959	-7.505965	-11.617921	-0.685109	0.315682	1.152219	0.114746	0.746826	1.392334
25886		-7.998384	-8.957425	-13.394170	-0.252407	-0.506077	1.515303	0.145752	0.747070	1.405762
25887		-5.956111	-9.744106	-13.111127	0.384579	-1.316944	1.708611	0.183594	0.754150	1.414551
25888		-4.437384	-9.808035	-12.909467	0.906583	-1.959725	1.796429	0.238770	0.770264	1.412354
25889		-3.570798	-8.967922	-11.946435	1.350406	-2.603196	1.926375	0.307129	0.786621	1.405762
25890		-2.651147	-7.472591	-10.403802	1.548224	-3.315339	2.186369	0.391357	0.803223	1.396973
25891		-1.605678	-5.869344	-9.166218	1.525368	-4.023648	2.526420	0.488770	0.822021	1.375000
25892		-0.596224	-5.776780	-8.795719	1.588851	-4.732625	2.856380	0.598145	0.823242	1.349121
25893		0.134131	-7.305972	-8.872114	2.017603	-5.304368	3.015185	0.708984	0.840088	1.296631
25894		0.695244	-8.095927	-8.254394	2.444990	-5.742241	3.056555	0.833252	0.859131	1.246094
25895		0.216111	-7.708952	-8.590511	2.776450	-6.423164	3.164534	0.960205	0.864990	1.160889
25896		-0.238901	-5.863968	-5.785002	2.901021	-6.901789	3.152141	1.085205	0.868652	1.075439
25897		0.668656	-3.326597	-5.980213	1.640428	-6.929007	3.107961	1.204590	0.840820	0.986572
25898		1.095371	-1.701912	-8.039435	1.072288	-7.287288	3.778960	1.328613	0.806641	0.893311
25899		-0.168843	-2.059457	-7.822835	1.037678	-7.428451	4.337012	1.451416	0.752441	0.782959
25900		-0.439402	-3.915549	-6.980636	0.599472	-7.599371	4.600877	1.559082	0.684570	0.668457
25901		-0.643168	-6.434913	-8.338085	0.444283	-7.601651	4.833319	1.657959	0.612061	0.552002
25902		-2.684685	-8.276905	-7.325607	0.794486	-7.293487	4.832878	1.741455	0.530762	0.426514
25903		-6.068541	-10.136212	-7.205184	0.979959	-6.862868	4.588928	1.809082	0.458008	0.301025
25904		-8.828999	-13.638968	-9.701421	1.071139	-6.401790	4.234301	1.854736	0.382813	0.188477
25905		-10.573331	-17.151864	-9.851385	0.892586	-5.727934	3.679433	1.881836	0.316406	0.080078
25906		-9.463805	-13.452102	-4.340815	-0.280709	-4.663412	2.836019	1.896973	0.274170	-0.002441
25907		-10.646981	3.522834	-5.720466	-1.462973	-3.250635	2.086259	1.916504	0.232178	-0.049805
25908		-10.511008	-3.006283	-5.541733	-1.878515	-2.432063	1.725650	1.920166	0.196533	-0.084229
25909		-2.818365	-12.637792	-9.029905	-2.079009	-1.737762	1.052348	1.927246	0.187744	-0.114746
25910		6.396993	-18.733513	-13.295201	-1.655418	-0.634151	-0.515897	1.919922	0.205566	-0.113037
25911		11.945573	-19.316837	-17.525783	-0.443900	1.080150	-1.839046	1.920654	0.243408	-0.069824
25912		6.685917	-15.758864	-18.439356	1.022427	2.593442	-1.426413	1.912354	0.281006	-0.006836
25913		1.351091	-12.212558	-17.526156	2.304771	3.299032	-1.731156	1.888184	0.327637	0.062256
25914		-2.230614	-11.809077	-4.248024	4.396040	4.238660	-2.065510	1.861084	0.389648	0.131104
25915		-14.327977	-16.243026	18.460846	5.780022	3.211836	-2.867593	1.830811	0.478271	0.153076
25916		-23.662946	-12.372472	-6.444828	4.800852	2.796048	-5.060623	1.790283	0.598145	0.198242
25917		-44.283525	14.702528	2.687463	3.067498	4.111856	-3.351800	1.749756	0.659912	0.269287
25918		-17.284791	25.437365	-10.483131	-0.330372	3.028477	-2.529143	1.717041	0.697510	0.321045
25919		-4.977033	0.418903	-19.111557	-2.598937	2.975247	-1.085895	1.683350	0.701416	0.393311
25920		-4.247236	-9.423962	-18.857659	-2.876279	3.040482	-1.692155	1.639404	0.743408	0.453857
25921		2.937056	-14.294850	-14.134875	-0.522308	2.509509	-5.043152	1.566650	0.831543	0.501953
25922		5.133698	-23.430175	-17.110474	1.864308	3.273710	-5.236160	1.498535	0.915527	0.528076
25923		-5.192907	-19.959511	-0.803881	1.599895	3.060099	-1.210198	1.460205	0.926025	0.567139
25924		-12.908408	-17.204560	-9.835437	-0.708243	1.747444	-0.884110	1.412598	0.943359	0.584229
25925		-11.051449	-13.879299	-9.299485	0.122881	2.202151	-1.730742	1.362793	0.962891	0.609863
25926		-14.583388	-17.946571	-8.242332	-0.088764	1.961726	-0.426651	1.336182	0.960449	0.627441
25927		-19.879341	-16.730295	-8.778588	0.301399	1.233031	0.680986	1.311768	0.955811	0.627441
25928		-22.925890	-9.762829	-7.769892	0.536303	0.913951	-0.238848	1.278076	0.957520	0.627197
25929		-20.577526	-7.079287	-7.831972	0.158192	0.680981	-1.266159	1.246094	0.979492	0.619629
25930		-21.246347	-5.184112	-7.550701	0.060092	0.632794	-1.012946	1.217285	0.974609	0.615234
25931		-26.217975	0.637470	-6.587456	-0.200497	0.450125	-0.479187	1.204102	0.965576	0.613281
25932		-25.788810	4.932680	-5.339041	-0.563109	0.282409	-0.845073	1.168457	0.965332	0.606445
25933		-20.969620	4.530436	-3.724919	-0.860947	0.173589	-1.232611	1.144287	0.960693	0.595459
25934		-17.814671	4.196933	-0.653201	-1.189963	0.127272	-1.218890	1.126465	0.958252	0.604248
25935		-15.970170	2.293194	2.419454	-1.242937	0.121872	-1.140958	1.104492	0.946777	0.597656
25936		-13.784645	1.075790	5.510850	-1.121169	0.177224	-1.030539	1.089111	0.939941	0.591064
25937		-12.466944	2.087348	8.922333	-0.985650	0.329991	-0.651303	1.071777	0.930908	0.595703
25938		-12.053197	1.128527	9.779565	-1.126978	0.686837	-0.653121	1.056396	0.924072	0.604492
25939		-9.710891	0.967345	9.523357	-1.103170	1.047275	-0.954652	1.032227	0.914795	0.617920
25940		-8.662182	2.762534	10.269059	-0.961709	1.214069	-1.116674	1.009766	0.916748	0.635254
25941		-7.507578	4.922748	10.501655	-0.871939	1.399813	-1.439307	0.987305	0.923340	0.645996
25942		-5.200503	7.785322	11.371220	-0.715338	1.810998	-1.906746	0.944580	0.929443	0.665527
25943		-4.199434	7.678255	11.018798	-0.910825	2.307820	-2.333587	0.906006	0.942383	0.700195
25944		-4.143300	5.240472	9.183452	-1.272252	2.846064	-2.636827	0.858643	0.955322	0.734863
25945		-6.305195	3.752640	7.402501	-1.541385	3.399286	-2.792709	0.793701	0.961182	0.776123
25946		-9.425821	4.516132	7.026530	-1.705971	3.805294	-2.945272	0.719727	0.967041	0.819824
25947		-12.511822	6.100552	6.864270	-1.923987	3.979338	-3.011382	0.654785	0.975342	0.878662
25948		-14.276628	8.246266	4.810925	-2.400028	3.998694	-3.012750	0.585938	0.965576	0.931396
25949		-14.199096	8.772885	3.433766	-2.902596	3.946569	-2.959083	0.519531	0.953857	0.984131
25950		-12.681539	5.490701	1.776500	-3.460255	3.921454	-2.720958	0.447021	0.921875	1.043945
25951		-11.756909	1.931295	-0.171304	-3.851170	3.949126	-2.265414	0.377197	0.883301	1.104004
25952		-12.164799	-1.266984	-2.735030	-4.141682	3.974851	-1.567300	0.316406	0.840332	1.164307
25953		-14.359345	-4.559016	-5.516156	-3.941622	3.882516	-0.794623	0.262207	0.797363	1.217773
25954		-17.577874	-8.591142	-10.402349	-2.962394	3.248608	-0.194302	0.221191	0.765869	1.251465
25955		-20.626782	-11.792382	-12.202992	-0.302690	2.752536	-0.052166	0.176025	0.774170	1.268555
25956		-18.262667	-7.125894	-6.414808	0.264233	2.375368	-0.417327	0.144775	0.778320	1.290283
25957		-13.194344	-1.802748	-6.478028	-0.946036	1.738072	-0.274777	0.122559	0.771484	1.310303
25958		-11.322545	-3.294917	-9.193409	-1.403495	1.055197	0.398452	0.123535	0.751465	1.339355
25959		-10.273018	-8.548094	-11.617265	-1.006563	0.194508	0.996933	0.139648	0.738281	1.359619
25960		-8.945796	-12.239803	-13.437253	-0.448860	-0.753100	1.428757	0.166260	0.738525	1.379639
25961		-7.238329	-13.466838	-13.911289	0.226548	-1.539235	1.525797	0.210938	0.739014	1.388672
25962		-5.382522	-12.348893	-13.873943	0.935311	-2.217498	1.558953	0.270264	0.761719	1.386230
25963		-3.990260	-10.790357	-13.607641	1.564456	-2.924432	1.805767	0.345215	0.784912	1.379639
25964		-2.978733	-9.066876	-11.917106	2.019755	-3.573854	2.109543	0.424561	0.810303	1.361816
25965		-1.963996	-7.281844	-10.290370	2.160308	-4.245018	2.417713	0.519531	0.833496	1.328613
25966		-1.009331	-6.124663	-9.752236	2.524885	-4.800721	2.701670	0.630127	0.856934	1.293457
25967		-0.300268	-5.105447	-8.179874	3.014059	-5.178884	2.950002	0.738525	0.882568	1.238281
25968		-0.453929	-4.215766	-6.957169	2.777368	-5.770888	3.229424	0.858643	0.895020	1.174805
25969		-1.414262	-4.121691	-7.541331	2.389760	-6.773074	3.438364	0.997314	0.889893	1.092041
25970		-1.457452	-3.346612	-5.113751	2.005557	-7.208311	3.406470	1.122559	0.880127	1.002686
25971		0.321836	-1.703536	-6.170308	0.720268	-7.077061	3.536112	1.249512	0.834717	0.923096
25972		-0.386308	-2.574644	-7.505860	0.107649	-7.302511	4.338477	1.372314	0.778320	0.841309
25973		-1.712662	-5.190338	-8.107158	-0.150833	-7.651399	4.582773	1.490967	0.712646	0.727051
25974		-1.511148	-6.595329	-7.701461	-0.199593	-7.876830	4.534017	1.592285	0.633789	0.610596
25975		-2.379468	-6.796414	-8.261536	-0.072188	-7.851062	4.330820	1.681885	0.570068	0.487061
25976		-4.557473	-8.822663	-7.486763	0.594357	-7.554052	4.301046	1.754150	0.492920	0.352783
25977		-7.411289	-12.233810	-7.432851	1.233945	-7.141752	4.279307	1.817627	0.417969	0.224854
25978		-9.261518	-15.291480	-9.154289	1.452628	-6.583203	4.293256	1.863037	0.343018	0.092529
25979		-7.998615	-13.722217	-8.518622	0.854078	-5.835001	4.478271	1.891113	0.254150	-0.006348
25980		-8.755028	-7.324434	-8.564189	0.472918	-4.742759	4.068356	1.911621	0.189941	-0.090576
25981		-13.288452	0.079684	-5.797617	0.647886	-3.473195	2.451256	1.917725	0.147705	-0.148926
25982		-11.420016	-4.425172	-7.648783	0.245856	-2.894693	1.441007	1.916504	0.123291	-0.214600
25983		-0.309715	-11.222558	-10.180830	0.221554	-1.896903	0.465487	1.923096	0.123291	-0.236572
25984		11.356772	-12.667195	-11.014359	0.325567	-0.254083	-0.598802	1.922607	0.136475	-0.223633
25985		9.908694	-10.961231	-12.596825	0.187082	1.608039	-0.928995	1.926025	0.163330	-0.173584
25986		3.235979	-9.131691	-13.610657	0.393508	2.849122	-1.344869	1.917969	0.196533	-0.114990
25987		-1.587803	-8.721755	-13.875317	1.062535	3.641389	-2.029359	1.911621	0.245605	-0.030273
25988		-3.163937	-12.534879	-7.955088	2.248339	4.039683	-2.533259	1.888916	0.309814	0.047363
25989		-9.217601	-15.830742	15.898481	3.880681	3.606410	-3.146618	1.876465	0.394287	0.100342
25990		-16.486155	-7.890106	2.073380	3.323718	2.661950	-4.608466	1.834717	0.493896	0.150391
25991		-40.703005	9.675454	-0.853126	2.094540	4.343204	-3.014302	1.807129	0.564941	0.229980
25992		-24.039977	7.118198	-6.636271	-0.247781	3.527018	-3.627047	1.766846	0.622314	0.292236
25993		-6.881684	-0.658763	-20.555114	-1.715409	3.118166	-1.631911	1.739746	0.633057	0.366699
25994		-10.311484	-10.300057	-22.065370	-4.637293	3.172009	-1.537299	1.696289	0.654785	0.447510
25995		-1.676787	-17.628619	-22.030857	-1.741285	2.587123	-4.945170	1.632080	0.754395	0.488770
25996		8.826634	-13.069902	-16.265542	3.455483	3.022832	-5.735464	1.561035	0.860352	0.501221
25997		0.350999	-9.517604	-4.619147	2.354229	3.301708	-2.874183	1.497070	0.897705	0.548340
25998		-10.732473	-13.567735	-6.754340	-1.132018	2.138177	-0.779619	1.467773	0.906250	0.578857
25999		-9.975976	-10.068901	-10.403026	-0.828141	1.713335	-1.859429	1.419922	0.927979	0.608887
26000		-9.138275	-11.801315	-10.068884	-0.996903	2.154719	-1.774804	1.372559	0.940674	0.645752
26001		-16.839856	-19.139101	-9.568368	-0.975809	1.582351	-0.035355	1.346436	0.924805	0.659180
26002		-25.485769	-17.325148	-9.845057	0.137172	0.878738	0.395675	1.323975	0.924561	0.663330
26003		-20.784161	-10.716157	-6.189979	-0.031168	0.426859	-1.701576	1.280762	0.950928	0.658203
26004		-10.893550	-10.424422	-8.073888	-0.694143	0.388269	-2.585316	1.233398	0.961426	0.657471
26005		-12.502534	-11.714848	-7.654082	-0.027772	0.665720	-0.648440	1.215332	0.963623	0.646484
26006		-23.957724	-7.875128	-6.013399	-0.025130	0.592031	0.565045	1.193848	0.947754	0.644531
26007		-28.184628	2.474763	-4.117158	-0.265394	0.410899	-0.283212	1.173828	0.940918	0.635742
26008		-23.942988	8.187976	-2.222452	-0.692443	0.255133	-0.885923	1.149902	0.929443	0.637939
26009		-19.302048	4.883195	-1.306768	-1.139869	0.143559	-0.954160	1.125488	0.927002	0.626953
26010		-16.829701	1.281051	0.824746	-1.279178	0.113700	-1.203169	1.103516	0.917969	0.626953
26011		-13.881034	1.822238	3.766081	-1.226195	0.122592	-1.058674	1.094971	0.906738	0.629395
26012		-13.501233	1.493792	6.109392	-1.198082	0.222714	-0.476235	1.082031	0.893066	0.620850
26013		-13.536480	-0.688789	6.872832	-1.209496	0.375104	-0.364587	1.067139	0.875244	0.636719
26014		-11.154988	-2.914307	6.722281	-1.071387	0.685586	-0.499301	1.047363	0.868164	0.636719
26015		-8.779616	-2.976562	7.586583	-0.625180	0.974672	-0.619078	1.031982	0.865967	0.638916
26016		-7.960056	-0.678247	7.991440	0.038296	1.206442	-0.770944	1.018311	0.872314	0.643066
26017		-6.914255	2.775524	10.083690	0.658490	1.559849	-1.105941	0.986572	0.885498	0.642578
26018		-5.897427	6.179795	11.060738	0.801917	2.043300	-1.607309	0.954834	0.898438	0.648682
26019		-5.508747	8.104300	10.560915	0.514655	2.560753	-2.072486	0.908936	0.927002	0.671875
26020		-6.670480	7.691261	8.701741	-0.049182	3.067165	-2.390081	0.861572	0.941895	0.695557
26021		-8.466857	7.317461	7.169811	-0.607850	3.508630	-2.620041	0.802979	0.954590	0.736816
26022		-10.880380	8.619837	6.489063	-1.121717	3.782516	-2.802111	0.735352	0.969482	0.780029
26023		-13.226264	10.509900	5.662828	-1.802872	3.874537	-2.958199	0.677246	0.973389	0.828125
26024		-13.571295	10.896554	4.413092	-2.664353	3.843739	-3.077721	0.606201	0.961426	0.883057
26025		-12.018833	8.867576	3.022626	-3.426655	3.783401	-3.086906	0.542236	0.940674	0.947021
26026		-10.851240	6.136562	1.755075	-3.897182	3.795780	-2.910934	0.471924	0.915527	1.006836
26027		-10.802112	3.743177	0.763239	-4.109382	3.792162	-2.552631	0.402100	0.874512	1.066895
26028		-11.136692	0.924176	0.450643	-4.321338	3.814303	-2.069202	0.339111	0.831543	1.129395
26029		-12.061509	-3.441423	-2.463049	-4.847098	3.828856	-1.218427	0.278809	0.770752	1.192139
26030		-15.581963	-8.957915	-7.482115	-4.843766	3.723977	-0.180618	0.231934	0.714600	1.246094
26031		-21.803227	-16.281899	-14.874427	-2.841231	2.783045	0.637916	0.208496	0.687744	1.268799
26032		-23.436753	-17.993118	-13.056995	0.570355	2.381807	0.178383	0.165527	0.702881	1.279053
26033		-14.411529	-7.763684	-6.274646	0.826165	2.174030	-0.775954	0.138184	0.715820	1.291992
26034		-9.337638	-0.228251	-7.362399	-0.679118	1.528100	0.129748	0.120605	0.708984	1.318359
26035		-10.066425	-2.450723	-10.899788	-0.501961	0.764139	1.482314	0.131836	0.707031	1.338379
26036		-10.798485	-8.929368	-11.931994	0.100826	-0.398780	2.192093	0.172119	0.702881	1.349609
26037		-9.663238	-13.688551	-13.115330	0.438834	-1.395628	2.273361	0.218506	0.714600	1.358398
26038		-7.060266	-14.773704	-14.367402	1.135301	-2.111791	2.129620	0.273926	0.724121	1.356445
26039		-4.598299	-13.274306	-13.682139	2.050588	-2.711791	2.155559	0.343750	0.767090	1.338135
26040		-2.932376	-10.109117	-11.171154	2.645536	-3.269094	2.366799	0.423096	0.792480	1.320313
26041		-1.704597	-6.689043	-9.333705	2.769282	-3.847361	2.664304	0.513428	0.822266	1.284912
26042		-0.775832	-4.279003	-8.391700	2.969856	-4.400217	2.909466	0.612793	0.850098	1.245117
26043		0.223829	-3.527281	-7.095963	3.106533	-4.882122	3.089997	0.723389	0.871338	1.196777
26044		0.593694	-4.493023	-6.556208	2.659237	-5.537143	3.307916	0.841309	0.881592	1.139893
26045		0.273503	-6.284025	-7.812665	2.504989	-6.448693	3.537411	0.968506	0.882813	1.063477
26046		0.119651	-5.906321	-4.972258	2.358357	-7.002925	3.510319	1.087402	0.866455	0.976318
26047		2.278706	-2.766154	-4.783836	1.028544	-6.778155	3.579332	1.202881	0.829834	0.903076
26048		1.103498	-1.846224	-6.350471	0.029590	-7.002625	4.640928	1.323730	0.764404	0.817139
26049		-1.251307	-4.038966	-7.106265	-0.329823	-7.465774	5.040457	1.442627	0.692139	0.722656
26050		-0.109123	-5.877784	-6.958613	-0.670244	-7.825762	4.914765	1.548584	0.611084	0.599854
26051		0.739332	-6.758174	-8.520130	-0.779283	-7.892865	4.796692	1.645508	0.534180	0.492188
26052		-1.532995	-8.931689	-7.445995	-0.184479	-7.610596	4.872052	1.716064	0.441406	0.366943
26053		-5.969845	-12.004954	-6.688403	0.173282	-7.330118	4.882417	1.777344	0.359863	0.230469
26054		-9.674272	-15.218249	-8.767434	0.389276	-6.974070	4.619218	1.825439	0.273438	0.111816
26055		-12.640615	-17.251573	-9.162229	0.355214	-6.423976	4.106282	1.850586	0.204834	0.001221
26056		-13.469029	-11.797366	-7.791510	0.012999	-5.597766	2.995495	1.866211	0.153809	-0.096680
26057		-14.350190	8.640404	-2.354120	0.302153	-3.950186	2.388751	1.867920	0.107178	-0.168213
26058		-12.128892	-3.950550	-4.415766	-0.433782	-3.293600	2.364438	1.869629	0.069336	-0.220215
26059		0.689856	-11.711616	-9.627560	-0.320472	-2.122247	1.436379	1.879150	0.051514	-0.248291
26060		10.716803	-13.991621	-11.463679	0.354288	-0.410569	-0.060451	1.874268	0.062500	-0.239746
26061		12.067892	-13.036834	-13.704404	0.873413	1.245298	-0.990681	1.884521	0.082764	-0.202637
26062		5.668527	-9.670744	-14.035735	1.538793	2.694076	-1.725423	1.882813	0.127197	-0.144287
26063		-0.563881	-7.890612	-12.834098	2.180008	3.695345	-2.460893	1.878174	0.187256	-0.066406
26064		-3.897737	-10.131093	-4.362139	3.171191	4.205211	-2.855130	1.859863	0.256104	0.019775
26065		-14.881298	-13.905066	17.610132	4.443089	3.445848	-3.507226	1.840576	0.344971	0.063721
26066		-27.718255	-4.914478	-0.838182	3.810853	2.955007	-5.202235	1.809570	0.451416	0.124756
26067		-55.552708	14.536468	5.322730	1.606744	4.197633	-3.439563	1.772949	0.528809	0.184326
26068		-9.077328	3.417125	-5.585709	-0.824893	2.957263	-3.996237	1.741699	0.582031	0.246826
26069		-5.842427	-4.787806	-20.138325	-1.916607	3.565282	-1.353546	1.712158	0.594971	0.334473
26070		-7.356745	-13.116871	-22.157109	-4.837640	2.958426	-2.353449	1.668701	0.625732	0.404053
26071		8.257585	-26.990792	-29.976192	-1.491119	2.248765	-5.711578	1.599121	0.742920	0.433838
26072		12.394607	-16.522999	-14.490478	5.469941	3.723955	-4.391194	1.531250	0.826660	0.466553
26073		-9.256727	-4.160204	-3.128136	1.024212	3.937016	-2.074830	1.492188	0.850830	0.509766
26074		-15.438509	-10.164434	-11.279697	-0.721581	1.704211	-1.033328	1.458008	0.868164	0.535645
26075		-10.572185	-13.507489	-8.815142	-0.686328	1.420003	-1.594888	1.410645	0.881104	0.563721
26076		-11.834770	-17.277948	-10.934460	-1.328911	1.829674	-1.349037	1.374756	0.885254	0.587646
26077		-22.254030	-20.583304	-10.587688	-0.505203	1.248984	0.513831	1.352783	0.875977	0.594238
26078		-24.177569	-13.576112	-6.721034	-0.014239	0.435425	-0.303710	1.319092	0.884521	0.587158
26079		-17.392324	-9.980826	-7.463376	-0.391577	0.407460	-1.929142	1.284668	0.906494	0.593018
26080		-13.874724	-11.217484	-6.017377	-0.158960	0.369515	-1.560158	1.253174	0.910645	0.583984
26081		-19.366430	-8.255255	-6.733883	-0.073784	0.451847	-0.284325	1.236084	0.894775	0.575439
26082		-28.577682	1.007416	-5.241576	-0.094184	0.314209	0.363516	1.223145	0.885742	0.564697
26083		-28.464327	8.517880	-3.280477	-0.479652	0.007830	-0.590276	1.194092	0.883301	0.562256
26084		-20.904201	7.645339	-1.292155	-1.015922	-0.191045	-1.084386	1.172119	0.876221	0.549072
26085		-16.407773	3.808294	1.085066	-1.433227	-0.201310	-0.817273	1.163574	0.864990	0.547119
26086		-13.954999	3.146841	4.319624	-1.410779	-0.118631	-0.611251	1.155029	0.858398	0.545166
26087		-14.147099	2.460478	8.438465	-1.150042	0.062598	-0.232592	1.142578	0.833740	0.543457
26088		-14.126056	2.155419	11.189880	-1.101605	0.214829	-0.208688	1.131592	0.826904	0.545654
26089		-12.113771	-0.427833	11.390482	-1.022570	0.614195	-0.435793	1.121094	0.813477	0.550293
26090		-8.118756	-2.193106	10.861798	-0.501967	0.988905	-0.841072	1.100830	0.817627	0.550293
26091		-4.749577	-0.825118	10.408268	0.172805	1.330498	-1.271553	1.069092	0.828369	0.558594
26092		-3.615086	5.346698	11.432446	0.499423	1.745038	-1.681023	1.039551	0.841553	0.564697
26093		-3.748992	11.243701	11.957090	0.130565	2.177968	-2.166990	1.009766	0.861328	0.585938
26094		-3.109334	10.925930	10.774163	-0.690080	2.612294	-2.703115	0.964111	0.889648	0.620361
26095		-4.028690	8.870059	9.006559	-1.534656	3.142052	-3.163169	0.907715	0.902344	0.666016
26096		-7.222519	8.229331	9.160410	-2.028133	3.643956	-3.502655	0.842529	0.912842	0.713867
26097		-10.829102	9.253948	8.972404	-2.401270	3.944783	-3.719733	0.775146	0.925537	0.777100
26098		-13.192298	9.149241	6.750380	-2.868031	4.078976	-3.710392	0.697021	0.924561	0.842773
26099		-13.702525	7.265125	4.234942	-3.227605	4.134182	-3.482505	0.630371	0.917236	0.904053
26100		-13.248311	5.371853	2.378693	-3.334287	4.170146	-3.078671	0.557373	0.900879	0.957031
26101		-13.335284	4.041009	0.658941	-3.304838	4.177856	-2.639310	0.482422	0.875488	1.016602
26102		-13.544978	2.374201	-0.200935	-3.228118	4.185141	-2.164669	0.418701	0.850342	1.076416
26103		-13.715474	0.358690	-0.602483	-3.471080	4.201044	-1.621277	0.355225	0.818359	1.129883
26104		-14.168178	-2.756220	-2.761918	-4.200697	4.235326	-0.907382	0.290283	0.764404	1.192383
26105		-16.516354	-6.908488	-7.478610	-4.549036	3.771893	-0.241057	0.241211	0.708008	1.239746
26106		-20.788563	-12.824777	-14.135173	-2.912246	2.834010	0.250061	0.213379	0.681152	1.277832
26107		-21.092194	-15.304101	-13.910620	0.276384	2.281223	0.292758	0.181152	0.703125	1.285889
26108		-14.504714	-7.563114	-7.402913	1.050846	1.939408	-0.022540	0.158447	0.711670	1.296631
26109		-9.965301	-1.780751	-8.563914	0.104588	1.338425	0.449628	0.151611	0.713867	1.322998
26110		-9.243850	-4.727297	-11.427428	0.397228	0.229650	1.655809	0.182373	0.725342	1.324951
26111		-8.455853	-9.955425	-12.656398	1.096791	-0.834886	2.352875	0.219482	0.748047	1.333496
26112		-6.576339	-13.398586	-13.347211	1.679514	-1.748156	2.578965	0.276855	0.764160	1.331299
26113		-4.377113	-14.019067	-13.736705	2.162686	-2.377527	2.514212	0.335938	0.791504	1.322021
26114		-2.733194	-12.597004	-13.100887	2.626059	-2.843318	2.426115	0.408447	0.823486	1.297363
26115		-1.836252	-9.531427	-10.982599	2.972979	-3.394034	2.663515	0.491699	0.864502	1.266113
26116		-1.471197	-5.826914	-8.896147	3.120990	-3.968120	3.065821	0.593262	0.887695	1.228516
26117		-1.471913	-3.367372	-7.393029	3.234204	-4.451713	3.430098	0.697266	0.911133	1.173584
26118		-1.369989	-3.252387	-6.099714	3.112105	-5.023743	3.640300	0.810547	0.923584	1.118896
26119		-1.391298	-5.100668	-6.278890	2.793774	-5.891923	3.833246	0.935547	0.927002	1.048828
26120		-1.497294	-6.280816	-4.954245	2.504671	-6.983733	3.903423	1.062988	0.919678	0.963867
26121		0.616195	-4.640082	-3.646823	1.469662	-7.054947	3.683022	1.180664	0.883057	0.879639
26122		2.301821	-2.818776	-5.300457	-0.122645	-6.858473	4.340893	1.308105	0.822021	0.809082
26123		-0.555247	-3.919879	-6.040053	-0.937810	-7.107970	5.225584	1.425293	0.734375	0.723877
26124		-2.169539	-5.302933	-5.461781	-1.764307	-7.501756	5.286456	1.531738	0.639648	0.627686
26125		-2.338283	-6.057369	-6.319775	-2.238298	-7.660712	5.056229	1.626953	0.549561	0.524658
